id,movie_path,dimension,hand,stimulus_type,order_emojis_slider,block,practice.thisRepN,practice.thisTrialN,practice.thisN,practice.thisIndex,trials.thisRepN,trials.thisTrialN,trials.thisN,trials.thisIndex,continuous_annotation,video_duration,valence_value,arousal_value,preference_value,engagement_value,familiarity_value,checkbox_Neutral,checkbox_Asco,checkbox_Felicidad,checkbox_Sorpresa,checkbox_Ira,checkbox_Miedo,checkbox_Tristeza,continuous_annotation_luminance,stim_value_green,stim_value,ID,Sesion,Tarea,Consumo de sustancias psicoactivas en las últimas 24 hs,Horas de sueño la noche anterior,date,exp_name,frame_rate,
99,../amsterdam_dynamic_facial_expression_set/F01-Fear-Face Forward.mp4,valence,right,LV-HA,direct,-1,0,0,0,0,,,,,"[[0.0, 0.014923700015060604], [0.0, 0.03128850006032735], [0.0, 0.04792410007212311], [0.0, 0.06457859999500215], [0.0, 0.08126270002685487], [0.0, 0.09782720007933676], [0.0, 0.11461620009504259], [0.0, 0.13118030002806336], [0.0, 0.1481669000349939], [0.0, 0.16454860009253025], [0.0, 0.18122680007945746], [0.0, 0.19792850001249462], [0.0, 0.21455939998850226], [0.0, 0.23113650002051145], [0.0, 0.2477629000786692], [0.0, 0.26442940009292215], [0.0, 0.28121170005761087], [0.0, 0.29808680003043264], [0.0, 0.3315884000621736], [0.0, 0.34799160005059093], [0.0, 0.3646798999980092], [0.0, 0.38120750000234693], [0.0, 0.39826560008805245], [0.0, 0.4147526000160724], [0.0, 0.43137380003463477], [0.0, 0.4478833000175655], [0.0, 0.46463210007641464], [0.0, 0.48126370005775243], [0.0, 0.4978780000237748], [0.0, 0.514545900048688], [0.0, 0.5312090000370517], [0.0, 0.547859700047411], [0.0, 0.5646240999922156], [0.0, 0.5812201000517234], [0.0, 0.597863300004974], [0.0, 0.6148358000209555], [0.0, 0.631225400022231], [0.0, 0.6479244000511244], [0.0, 0.6645589000545442], [0.0, 0.6812595000956208], [0.0, 0.6978897000662982], [0.0, 0.714661700068973], [0.0, 0.7312204000772908], [0.0, 0.7478872000938281], [0.0, 0.7645613000495359], [0.0, 0.7812534000258893], [0.0, 0.7977927000029013], [0.0, 0.814536300022155], [0.0, 0.8311993000097573], [0.0, 0.8479020000668243], [0.0, 0.864549900055863], [0.0, 0.8812545000109822], [0.0, 0.8977582000661641], [0.0, 0.9143995000049472], [0.0, 0.9312668000347912], [0.0, 0.9479199000634253], [0.0, 0.9645700000692159], [0.0, 0.9812584000173956], [0.0, 0.9979061000049114], [0.0, 1.0145837999880314], [0.0, 1.0312098000431433], [0.0, 1.0479391000699252], [0.0, 1.064474600018002], [0.0, 1.0812681000679731], [0.0, 1.0979387999977916]]",0.0,,,,,,,,,,,,,,,,33,A,non_immersive,No,8,2024-05-03_11h55.16.498,Experiment_VR_non_immersive,59.9910253441098,
2,../amsterdam_dynamic_facial_expression_set/F01-Disgust-Face Forward.mp4,arousal,right,HV-LA,direct,0,,,,,0,0,0,1,"[[ 0.          0.0158757 ]
 [ 0.          0.0323969 ]
 [ 0.          0.0490561 ]
 [ 0.          0.066139  ]
 [ 0.          0.0824198 ]
 [ 0.          0.0998831 ]
 [ 0.          0.1157241 ]
 [ 0.          0.1333162 ]
 [ 0.          0.1490567 ]
 [ 0.          0.1666184 ]
 [ 0.          0.1824225 ]
 [ 0.          0.2000232 ]
 [ 0.          0.2157203 ]
 [ 0.          0.2330459 ]
 [ 0.          0.2489124 ]
 [ 0.          0.2666464 ]
 [ 0.          0.2824273 ]
 [ 0.          0.299885  ]
 [ 0.          0.3157239 ]
 [ 0.          0.3332797 ]
 [ 0.          0.349055  ]
 [ 0.          0.3665925 ]
 [ 0.          0.3824217 ]
 [ 0.          0.3998773 ]
 [ 0.          0.4157287 ]
 [ 0.          0.4332809 ]
 [ 0.          0.4490337 ]
 [ 0.          0.4665925 ]
 [ 0.          0.4824176 ]
 [ 0.          0.499827  ]
 [ 0.          0.5156355 ]
 [ 0.          0.5331056 ]
 [ 0.          0.5489003 ]
 [ 0.          0.5666161 ]
 [ 0.          0.5823703 ]
 [ 0.          0.599908  ]
 [ 0.          0.6157392 ]
 [ 0.          0.6330766 ]
 [ 0.          0.648899  ]
 [ 0.          0.6664592 ]
 [ 0.          0.6824279 ]
 [ 0.          0.6999324 ]
 [ 0.          0.7157316 ]
 [ 0.          0.7332548 ]
 [ 0.          0.7490922 ]
 [ 0.          0.7666147 ]
 [ 0.          0.7824339 ]
 [ 0.          0.7998764 ]
 [ 0.          0.8156387 ]
 [ 0.          0.8332679 ]
 [ 0.          0.8490615 ]
 [ 0.          0.8666389 ]
 [ 0.          0.8824298 ]
 [ 0.          0.8999357 ]
 [ 0.          0.9157327 ]
 [ 0.          0.9332809 ]
 [ 0.          0.9490684 ]
 [ 0.          0.9666013 ]
 [ 0.          0.9823642 ]
 [ 0.01472301  1.0000004 ]
 [ 0.03680752  1.0156964 ]
 [ 0.04416903  1.0333633 ]
 [ 0.04416903  1.0489565 ]
 [ 0.05153053  1.0665749 ]
 [ 0.06625354  1.0824135 ]
 [ 0.08833806  1.0998896 ]
 [ 0.11042257  1.115748  ]
 [ 0.11778408  1.1332768 ]
 [ 0.1545916   1.1490742 ]
 [ 0.16931461  1.1666057 ]
 [ 0.19876063  1.1824455 ]
 [ 0.21348364  1.1998675 ]
 [ 0.22820665  1.2157501 ]
 [ 0.25765267  1.2331449 ]
 [ 0.26501417  1.2490721 ]
 [ 0.26501417  1.266486  ]
 [ 0.27237568  1.2824425 ]
 [ 0.27237568  1.3000573 ]
 [ 0.27973718  1.315647  ]
 [ 0.28709869  1.3330555 ]
 [ 0.29446019  1.3489267 ]
 [ 0.3018217   1.3665148 ]
 [ 0.31654471  1.3824419 ]
 [ 0.33126771  1.3998951 ]
 [ 0.35335223  1.4157457 ]
 [ 0.37543674  1.4332682 ]
 [ 0.37543674  1.4489601 ]
 [ 0.38279825  1.4666092 ]
 [ 0.39015975  1.48245   ]
 [ 0.41224427  1.499942  ]
 [ 0.42696728  1.515752  ]
 [ 0.4564133   1.5332802 ]
 [ 0.47849781  1.5490793 ]
 [ 0.47849781  1.5666412 ]
 [ 0.50058232  1.5824261 ]
 [ 0.60364339  1.5999267 ]
 [ 0.69934295  1.6157522 ]
 [ 0.78031951  1.6331228 ]
 [ 0.9201881   1.6489502 ]
 [ 0.97171863  1.666702  ]
 [ 0.99380314  1.6824572 ]
 [ 1.          1.7000387 ]
 [ 1.          1.7157467 ]
 [ 1.          1.7330617 ]
 [ 1.          1.7489691 ]
 [ 1.          1.7665121 ]
 [ 1.          1.7824362 ]
 [ 1.          1.8000331 ]
 [ 1.          1.8157493 ]
 [ 1.          1.8332657 ]
 [ 1.          1.8490791 ]
 [ 1.          1.8666608 ]
 [ 1.          1.8824433 ]
 [ 1.          1.8997933 ]
 [ 1.          1.9157487 ]
 [ 1.          1.9333016 ]
 [ 1.          1.94908   ]
 [ 1.          1.9666656 ]
 [ 1.          1.9823837 ]
 [ 1.          1.999903  ]
 [ 1.          2.0157531 ]
 [ 1.          2.0332523 ]
 [ 1.          2.0490864 ]
 [ 1.          2.0666163 ]
 [ 1.          2.0824493 ]
 [ 0.99380314  2.1000404 ]
 [ 0.95699562  2.1156583 ]
 [ 0.9201881   2.1330941 ]
 [ 0.88338057  2.148953  ]
 [ 0.85393455  2.1665869 ]
 [ 0.80976552  2.1824276 ]
 [ 0.772958    2.1999548 ]
 [ 0.74351198  2.2157122 ]
 [ 0.71406596  2.2331476 ]
 [ 0.66989693  2.2489861 ]
 [ 0.63308941  2.2666503 ]
 [ 0.58892038  2.2824604 ]
 [ 0.55211286  2.2999293 ]
 [ 0.47849781  2.3157587 ]
 [ 0.42696728  2.3332682 ]
 [ 0.35335223  2.3490948 ]
 [ 0.33126771  2.3666548 ]
 [ 0.25029116  2.3825045 ]
 [ 0.21348364  2.3997783 ]
 [ 0.16931461  2.4157621 ]
 [ 0.10306107  2.4331331 ]
 [ 0.05153053  2.448977  ]
 [-0.0073615   2.4666694 ]
 [-0.05889204  2.4824509 ]
 [-0.09569956  2.4999268 ]
 [-0.1472301   2.5157587 ]
 [-0.19139912  2.5332785 ]
 [-0.23556815  2.5490087 ]
 [-0.27973718  2.5666114 ]
 [-0.3091832   2.5824082 ]
 [-0.32390621  2.5999467 ]
 [-0.32390621  2.615734  ]
 [-0.32390621  2.6332791 ]
 [-0.32390621  2.6490932 ]
 [-0.33126771  2.6666958 ]
 [-0.33126771  2.6824599 ]
 [-0.33862922  2.7000528 ]
 [-0.34599072  2.7157652 ]
 [-0.35335223  2.7331023 ]
 [-0.36071373  2.7489913 ]
 [-0.38279825  2.766451  ]
 [-0.41960577  2.7824724 ]
 [-0.4564133   2.8000215 ]
 [-0.48585931  2.8157663 ]
 [-0.53002834  2.8331531 ]
 [-0.53738985  2.8490286 ]
 [-0.55211286  2.8667367 ]
 [-0.55211286  2.8824627 ]
 [-0.55211286  2.8998467 ]
 [-0.55211286  2.9157693 ]
 [-0.56683587  2.9333077 ]
 [-0.57419737  2.9491012 ]
 [-0.60364339  2.9666386 ]
 [-0.6183664   2.9824032 ]
 [-0.64045092  2.9999977 ]
 [-0.66989693  3.0157701 ]
 [-0.69934295  3.0332016 ]
 [-0.72878897  3.0489899 ]
 [-0.75087349  3.0664704 ]
 [-0.78031951  3.0824426 ]
 [-0.81712703  3.0997277 ]
 [-0.84657305  3.1158068 ]
 [-0.86129606  3.1332813 ]
 [-0.87601907  3.149103  ]
 [-0.89810358  3.1666579 ]
 [-0.90546509  3.1824719 ]
 [-0.90546509  3.1998934 ]
 [-0.90546509  3.2157697 ]
 [-0.90546509  3.2331471 ]
 [-0.9201881   3.2489928 ]
 [-0.94227261  3.2665179 ]
 [-0.98644164  3.2824639 ]
 [-1.          3.2999332 ]
 [-1.          3.3157714 ]
 [-1.          3.3333386 ]
 [-1.          3.3491032 ]
 [-1.          3.3666877 ]
 [-1.          3.3824631 ]
 [-1.          3.3999827 ]
 [-1.          3.4157774 ]
 [-1.          3.4330981 ]
 [-1.          3.4490579 ]
 [-1.          3.4666924 ]
 [-1.          3.4824788 ]
 [-1.          3.499954  ]
 [-1.          3.5157751 ]
 [-1.          3.5333457 ]
 [-1.          3.5490711 ]
 [-1.          3.5666413 ]
 [-1.          3.5824108 ]
 [-1.          3.5998202 ]
 [-1.          3.6157741 ]
 [-1.          3.6332829 ]
 [-1.          3.6491054 ]
 [-1.          3.666675  ]
 [-1.          3.6824671 ]
 [-1.          3.699953  ]
 [-1.          3.7157769 ]
 [-1.          3.7332857 ]
 [-1.          3.7491106 ]
 [-1.          3.7665631 ]
 [-1.          3.7824627 ]
 [-1.          3.7999234 ]
 [-1.          3.8157756 ]
 [-1.          3.8333035 ]
 [-1.          3.8491098 ]
 [-1.          3.8666435 ]
 [-1.          3.8823192 ]
 [-1.          3.8999424 ]
 [-0.98644164  3.9156172 ]
 [-0.97171863  3.933305  ]
 [-0.94963412  3.949018  ]
 [-0.94227261  3.9666515 ]
 [-0.93491111  3.9824827 ]
 [-0.9275496   4.0000179 ]
 [-0.9201881   4.0157826 ]
 [-0.91282659  4.0332125 ]
 [-0.89810358  4.0490152 ]
 [-0.89074208  4.0667103 ]
 [-0.88338057  4.0824775 ]
 [-0.86865756  4.0999337 ]
 [-0.86129606  4.1157847 ]
 [-0.85393455  4.1333244 ]
 [-0.84657305  4.1491203 ]
 [-0.83921154  4.1666652 ]
 [-0.82448853  4.1824836 ]
 [-0.81712703  4.2000403 ]
 [-0.79504252  4.2157889 ]
 [-0.772958    4.2331967 ]
 [-0.772958    4.2490815 ]
 [-0.75087349  4.2666789 ]
 [-0.73615048  4.2824867 ]
 [-0.72878897  4.2999641 ]
 [-0.69934295  4.3157901 ]
 [-0.68461994  4.3333458 ]
 [-0.64781242  4.349122  ]
 [-0.60364339  4.3666291 ]
 [-0.55211286  4.3824528 ]
 [-0.53002834  4.3999968 ]
 [-0.50794383  4.4157881 ]
 [-0.50058232  4.433126  ]
 [-0.47849781  4.4489578 ]
 [-0.44905179  4.4666768 ]
 [-0.40488276  4.482493  ]
 [-0.34599072  4.4999648 ]
 [-0.3018217   4.5157909 ]
 [-0.25765267  4.533278  ]
 [-0.22084514  4.5491209 ]
 [-0.19876063  4.5666684 ]
 [-0.18403762  4.5824604 ]
 [-0.18403762  4.5999772 ]
 [-0.18403762  4.6157962 ]
 [-0.17667611  4.6332287 ]
 [-0.17667611  4.6490318 ]
 [-0.1619531   4.6666885 ]
 [-0.1472301   4.682489  ]
 [-0.13250709  4.6999629 ]
 [-0.11778408  4.7157951 ]
 [-0.08833806  4.7332817 ]
 [-0.05153053  4.7491341 ]
 [-0.03680752  4.7665989 ]
 [-0.01472301  4.7823432 ]
 [ 0.          4.7998538 ]
 [ 0.          4.8157527 ]
 [ 0.          4.8333075 ]
 [ 0.0073615   4.8491248 ]
 [ 0.0073615   4.8666299 ]
 [ 0.02944602  4.8824953 ]
 [ 0.03680752  4.8999621 ]
 [ 0.04416903  4.9157922 ]
 [ 0.04416903  4.9333233 ]
 [ 0.04416903  4.9491271 ]
 [ 0.04416903  4.9665423 ]
 [ 0.04416903  4.9824894 ]
 [ 0.04416903  4.9999901 ]
 [ 0.04416903  5.0157988 ]
 [ 0.04416903  5.0333387 ]
 [ 0.04416903  5.0490174 ]
 [ 0.04416903  5.0666596 ]
 [ 0.04416903  5.0825524 ]
 [ 0.04416903  5.1000129 ]
 [ 0.04416903  5.1158005 ]
 [ 0.04416903  5.1333144 ]
 [ 0.04416903  5.1489725 ]
 [ 0.04416903  5.1665648 ]
 [ 0.04416903  5.1824348 ]
 [ 0.04416903  5.1997428 ]
 [ 0.04416903  5.2158004 ]
 [ 0.04416903  5.2333129 ]
 [ 0.04416903  5.2491329 ]
 [ 0.04416903  5.2666281 ]
 [ 0.04416903  5.2825184 ]
 [ 0.04416903  5.2999649 ]
 [ 0.04416903  5.3158019 ]
 [ 0.04416903  5.3333226 ]
 [ 0.04416903  5.3490368 ]
 [ 0.04416903  5.3666876 ]
 [ 0.04416903  5.3824935 ]
 [ 0.04416903  5.3998748 ]
 [ 0.04416903  5.4158036 ]
 [ 0.04416903  5.4333026 ]
 [ 0.04416903  5.4491341 ]
 [ 0.04416903  5.4665886 ]
 [ 0.04416903  5.4825014 ]
 [ 0.04416903  5.5000301 ]
 [ 0.04416903  5.5158058 ]
 [ 0.04416903  5.5330575 ]
 [ 0.04416903  5.5491375 ]
 [ 0.04416903  5.566627  ]
 [ 0.04416903  5.5824382 ]
 [ 0.04416903  5.5999289 ]
 [ 0.04416903  5.6157251 ]
 [ 0.04416903  5.6332893 ]
 [ 0.04416903  5.6491604 ]
 [ 0.04416903  5.6666282 ]
 [ 0.04416903  5.6825122 ]
 [ 0.04416903  5.6999137 ]
 [ 0.04416903  5.7158088 ]
 [ 0.04416903  5.7332515 ]
 [ 0.04416903  5.7491456 ]
 [ 0.04416903  5.7664525 ]
 [ 0.04416903  5.7824974 ]
 [ 0.04416903  5.8000265 ]
 [ 0.04416903  5.8158071 ]
 [ 0.04416903  5.8331246 ]
 [ 0.04416903  5.8490475 ]
 [ 0.04416903  5.8665841 ]
 [ 0.04416903  5.882492  ]
 [ 0.04416903  5.899932  ]
 [ 0.04416903  5.9158097 ]
 [ 0.04416903  5.9332902 ]
 [ 0.04416903  5.9491416 ]
 [ 0.04416903  5.9666227 ]
 [ 0.04416903  5.9825098 ]
 [ 0.04416903  5.9999391 ]
 [ 0.04416903  6.0158166 ]
 [ 0.04416903  6.0336898 ]
 [ 0.04416903  6.0495989 ]]",6.01,None,None,None,None,None,False,False,False,True,False,True,False,"[[ 0.00000000e+00  2.32999446e-05]
 [ 0.00000000e+00  1.86280999e-02]
 [ 0.00000000e+00  3.52657000e-02]
 [ 0.00000000e+00  5.19379999e-02]
 [ 0.00000000e+00  6.85881999e-02]
 [ 0.00000000e+00  8.52590000e-02]
 [ 0.00000000e+00  1.01922400e-01]
 [ 0.00000000e+00  1.18588400e-01]
 [ 0.00000000e+00  1.35250300e-01]
 [ 0.00000000e+00  1.51927900e-01]
 [ 0.00000000e+00  1.68587600e-01]
 [ 0.00000000e+00  1.85261400e-01]
 [ 0.00000000e+00  2.01927200e-01]
 [ 0.00000000e+00  2.18564200e-01]
 [ 0.00000000e+00  2.35267400e-01]
 [ 0.00000000e+00  2.51934300e-01]
 [ 0.00000000e+00  2.68591200e-01]
 [ 0.00000000e+00  2.84814700e-01]
 [ 0.00000000e+00  3.01476500e-01]
 [ 0.00000000e+00  3.18109400e-01]
 [ 0.00000000e+00  3.34813500e-01]
 [ 0.00000000e+00  3.51490400e-01]
 [ 0.00000000e+00  3.68139500e-01]
 [ 0.00000000e+00  3.84821400e-01]
 [ 0.00000000e+00  4.01469300e-01]
 [ 0.00000000e+00  4.18110200e-01]
 [ 0.00000000e+00  4.34835500e-01]
 [ 0.00000000e+00  4.51492400e-01]
 [ 0.00000000e+00  4.68118600e-01]
 [ 0.00000000e+00  4.84664300e-01]
 [ 0.00000000e+00  5.01483500e-01]
 [ 0.00000000e+00  5.18084200e-01]
 [ 0.00000000e+00  5.34812000e-01]
 [ 0.00000000e+00  5.51488700e-01]
 [ 0.00000000e+00  5.68145600e-01]
 [ 0.00000000e+00  5.84827300e-01]
 [ 0.00000000e+00  6.01467000e-01]
 [ 0.00000000e+00  6.18116700e-01]
 [ 0.00000000e+00  6.34812600e-01]
 [ 0.00000000e+00  6.51496300e-01]
 [ 0.00000000e+00  6.68146200e-01]
 [ 0.00000000e+00  6.84777200e-01]
 [ 0.00000000e+00  7.01474200e-01]
 [ 0.00000000e+00  7.18119300e-01]
 [ 0.00000000e+00  7.34812600e-01]
 [ 0.00000000e+00  7.51498400e-01]
 [ 0.00000000e+00  7.68148600e-01]
 [ 0.00000000e+00  7.84668300e-01]
 [ 0.00000000e+00  8.01457400e-01]
 [ 0.00000000e+00  8.18120000e-01]
 [ 0.00000000e+00  8.34666500e-01]
 [ 0.00000000e+00  8.51495800e-01]
 [ 0.00000000e+00  8.68135200e-01]
 [ 0.00000000e+00  8.84775000e-01]
 [ 0.00000000e+00  9.01491100e-01]
 [ 0.00000000e+00  9.18121500e-01]
 [ 0.00000000e+00  9.34823200e-01]
 [ 0.00000000e+00  9.51489100e-01]
 [ 0.00000000e+00  9.68089400e-01]
 [ 0.00000000e+00  9.84754800e-01]
 [ 2.94460191e-02  1.00142540e+00]
 [ 1.03061067e-01  1.01859330e+00]
 [ 1.61953105e-01  1.03527150e+00]
 [ 2.57652667e-01  1.05194150e+00]
 [ 3.68075239e-01  1.06860030e+00]
 [ 4.34328782e-01  1.08527810e+00]
 [ 4.41690286e-01  1.10194050e+00]
 [ 4.49051791e-01  1.11858970e+00]
 [ 4.56413296e-01  1.13526400e+00]
 [ 4.85859315e-01  1.15194520e+00]
 [ 5.37389848e-01  1.16861240e+00]
 [ 5.81558877e-01  1.18527620e+00]
 [ 6.18366401e-01  1.20194290e+00]
 [ 6.40450915e-01  1.21861080e+00]
 [ 6.84619944e-01  1.23527210e+00]
 [ 7.28788972e-01  1.25194470e+00]
 [ 8.17127030e-01  1.26861360e+00]
 [ 8.98103582e-01  1.28528440e+00]
 [ 9.27549601e-01  1.30194800e+00]
 [ 9.49634116e-01  1.31861620e+00]
 [ 9.86441639e-01  1.33528910e+00]
 [ 1.00000000e+00  1.35194480e+00]
 [ 1.00000000e+00  1.36860500e+00]
 [ 1.00000000e+00  1.38527280e+00]
 [ 1.00000000e+00  1.40194160e+00]
 [ 1.00000000e+00  1.41861300e+00]
 [ 1.00000000e+00  1.43527670e+00]
 [ 1.00000000e+00  1.45193790e+00]
 [ 1.00000000e+00  1.46860740e+00]
 [ 1.00000000e+00  1.48527540e+00]
 [ 1.00000000e+00  1.50194120e+00]
 [ 1.00000000e+00  1.51857960e+00]
 [ 1.00000000e+00  1.53526420e+00]
 [ 1.00000000e+00  1.55194120e+00]
 [ 1.00000000e+00  1.56860150e+00]
 [ 1.00000000e+00  1.58527930e+00]
 [ 1.00000000e+00  1.60194560e+00]
 [ 1.00000000e+00  1.61860750e+00]
 [ 1.00000000e+00  1.63527340e+00]
 [ 1.00000000e+00  1.65194810e+00]
 [ 1.00000000e+00  1.66861150e+00]
 [ 1.00000000e+00  1.68527750e+00]
 [ 1.00000000e+00  1.70194420e+00]
 [ 1.00000000e+00  1.71862370e+00]
 [ 1.00000000e+00  1.73528660e+00]
 [ 1.00000000e+00  1.75195400e+00]
 [ 1.00000000e+00  1.76861610e+00]
 [ 9.05465087e-01  1.78527710e+00]
 [ 8.17127030e-01  1.80194600e+00]
 [ 7.28788972e-01  1.81861490e+00]
 [ 6.69896934e-01  1.83528510e+00]
 [ 6.18366401e-01  1.85195100e+00]
 [ 5.52112858e-01  1.86861880e+00]
 [ 4.78497810e-01  1.88528540e+00]
 [ 4.12244267e-01  1.90195410e+00]
 [ 3.38629219e-01  1.91862210e+00]
 [ 2.79737181e-01  1.93528000e+00]
 [ 2.06122134e-01  1.95195340e+00]
 [ 1.54591600e-01  1.96861710e+00]
 [ 1.32507086e-01  1.98481200e+00]
 [ 1.03061067e-01  2.00150050e+00]
 [ 8.09765525e-02  2.01813790e+00]
 [ 5.15305334e-02  2.03483130e+00]
 [ 7.36150477e-03  2.05151830e+00]
 [-4.41690286e-02  2.06814370e+00]
 [-9.56995620e-02  2.08485010e+00]
 [-2.06122134e-01  2.10150400e+00]
 [-2.79737181e-01  2.11861020e+00]
 [-3.31267715e-01  2.13530170e+00]
 [-3.75436743e-01  2.15195280e+00]
 [-4.12244267e-01  2.16862570e+00]
 [-4.41690286e-01  2.18528250e+00]
 [-4.71136305e-01  2.20195470e+00]
 [-5.00582324e-01  2.21863270e+00]
 [-5.30028344e-01  2.23528380e+00]
 [-5.59474363e-01  2.25199790e+00]
 [-6.03643391e-01  2.26861130e+00]
 [-6.77258439e-01  2.28525040e+00]
 [-7.21427468e-01  2.30195600e+00]
 [-7.58234991e-01  2.31861860e+00]
 [-7.95042515e-01  2.33530640e+00]
 [-8.31850039e-01  2.35197020e+00]
 [-8.39211544e-01  2.36862960e+00]
 [-8.61296058e-01  2.38529660e+00]
 [-8.98103582e-01  2.40195510e+00]
 [-9.27549601e-01  2.41862240e+00]
 [-9.56995620e-01  2.43529110e+00]
 [-9.64357125e-01  2.45177950e+00]
 [-9.71718630e-01  2.46863920e+00]
 [-9.79080135e-01  2.48531030e+00]
 [-9.86441639e-01  2.50196390e+00]
 [-9.93803144e-01  2.51864090e+00]
 [-1.00000000e+00  2.53529940e+00]
 [-1.00000000e+00  2.55196600e+00]
 [-1.00000000e+00  2.56863460e+00]
 [-1.00000000e+00  2.58530180e+00]
 [-1.00000000e+00  2.60196060e+00]
 [-1.00000000e+00  2.61863050e+00]
 [-1.00000000e+00  2.63529510e+00]
 [-1.00000000e+00  2.65196490e+00]
 [-1.00000000e+00  2.66862790e+00]
 [-1.00000000e+00  2.68528340e+00]
 [-1.00000000e+00  2.70196150e+00]
 [-1.00000000e+00  2.71863690e+00]
 [-1.00000000e+00  2.73529420e+00]
 [-1.00000000e+00  2.75196730e+00]
 [-1.00000000e+00  2.76862770e+00]
 [-1.00000000e+00  2.78529630e+00]
 [-1.00000000e+00  2.80196360e+00]
 [-1.00000000e+00  2.81862460e+00]
 [-1.00000000e+00  2.83529900e+00]
 [-1.00000000e+00  2.85196790e+00]
 [-1.00000000e+00  2.86863590e+00]
 [-1.00000000e+00  2.88531370e+00]
 [-1.00000000e+00  2.90196980e+00]
 [-1.00000000e+00  2.91864040e+00]
 [-1.00000000e+00  2.93529390e+00]
 [-1.00000000e+00  2.95197040e+00]
 [-1.00000000e+00  2.96862920e+00]
 [-1.00000000e+00  2.98531800e+00]
 [-1.00000000e+00  3.00196600e+00]
 [-1.00000000e+00  3.01863800e+00]
 [-1.00000000e+00  3.03530130e+00]
 [-1.00000000e+00  3.05197830e+00]
 [-1.00000000e+00  3.06863180e+00]
 [-1.00000000e+00  3.08531110e+00]
 [-1.00000000e+00  3.10196380e+00]
 [-1.00000000e+00  3.11863330e+00]
 [-1.00000000e+00  3.13529890e+00]
 [-1.00000000e+00  3.15197430e+00]
 [-1.00000000e+00  3.16863700e+00]
 [-1.00000000e+00  3.18531160e+00]
 [-1.00000000e+00  3.20195560e+00]
 [-1.00000000e+00  3.21859750e+00]
 [-1.00000000e+00  3.23530410e+00]
 [-1.00000000e+00  3.25197610e+00]
 [-1.00000000e+00  3.26863770e+00]
 [-1.00000000e+00  3.28531390e+00]
 [-1.00000000e+00  3.30196660e+00]
 [-1.00000000e+00  3.31864420e+00]
 [-9.71718630e-01  3.33531010e+00]
 [-9.27549601e-01  3.35198570e+00]
 [-8.90742077e-01  3.36865100e+00]
 [-8.39211544e-01  3.38531790e+00]
 [-8.24488534e-01  3.40198120e+00]
 [-8.17127030e-01  3.41864990e+00]
 [-8.17127030e-01  3.43531300e+00]
 [-8.17127030e-01  3.45199040e+00]
 [-8.02404020e-01  3.46864570e+00]
 [-7.80319506e-01  3.48531880e+00]
 [-7.50873487e-01  3.50197800e+00]
 [-7.14065963e-01  3.51865530e+00]
 [-6.91981449e-01  3.53531450e+00]
 [-6.69896934e-01  3.55198810e+00]
 [-6.62535429e-01  3.56864570e+00]
 [-6.47812420e-01  3.58470990e+00]
 [-6.40450915e-01  3.60152920e+00]
 [-6.18366401e-01  3.61817080e+00]
 [-5.74197372e-01  3.63480170e+00]
 [-5.44751353e-01  3.65154620e+00]
 [-5.22666839e-01  3.66817010e+00]
 [-4.93220820e-01  3.68487950e+00]
 [-4.78497810e-01  3.70153070e+00]
 [-4.63774801e-01  3.71801010e+00]
 [-4.26967277e-01  3.73480350e+00]
 [-4.12244267e-01  3.75147260e+00]
 [-3.97521258e-01  3.76820820e+00]
 [-3.68075239e-01  3.78480380e+00]
 [-3.45990724e-01  3.80152220e+00]
 [-3.23906210e-01  3.81816900e+00]
 [-3.23906210e-01  3.83487210e+00]
 [-3.16544705e-01  3.85154550e+00]
 [-2.94460191e-01  3.86819950e+00]
 [-2.72375677e-01  3.88487870e+00]
 [-2.35568153e-01  3.90153290e+00]
 [-2.20845143e-01  3.91801550e+00]
 [-2.06122134e-01  3.93529700e+00]
 [-1.98760629e-01  3.95200340e+00]
 [-1.91399124e-01  3.96865630e+00]
 [-1.54591600e-01  3.98532390e+00]
 [-1.25145581e-01  4.00199220e+00]
 [-1.10422572e-01  4.01864760e+00]
 [-1.10422572e-01  4.03533220e+00]
 [-1.10422572e-01  4.05199210e+00]
 [-1.10422572e-01  4.06865440e+00]
 [-1.10422572e-01  4.08532000e+00]
 [-1.10422572e-01  4.10199110e+00]
 [-1.10422572e-01  4.11865350e+00]
 [-1.10422572e-01  4.13532670e+00]
 [-1.10422572e-01  4.15199910e+00]
 [-1.10422572e-01  4.16865770e+00]
 [-1.10422572e-01  4.18532960e+00]
 [-1.10422572e-01  4.20198720e+00]
 [-1.10422572e-01  4.21861460e+00]
 [-1.10422572e-01  4.23532400e+00]
 [-1.10422572e-01  4.25200500e+00]
 [-1.10422572e-01  4.26866620e+00]
 [-1.10422572e-01  4.28532800e+00]
 [-1.10422572e-01  4.30199070e+00]
 [-1.10422572e-01  4.31864890e+00]
 [-1.10422572e-01  4.33532520e+00]
 [-1.10422572e-01  4.35199540e+00]
 [-1.10422572e-01  4.36866140e+00]
 [-1.10422572e-01  4.38532500e+00]
 [-1.10422572e-01  4.40198750e+00]
 [-1.10422572e-01  4.41865900e+00]
 [-1.10422572e-01  4.43532950e+00]
 [-1.10422572e-01  4.45198460e+00]
 [-1.10422572e-01  4.46866270e+00]
 [-1.10422572e-01  4.48532320e+00]
 [-1.10422572e-01  4.50198730e+00]
 [-1.03061067e-01  4.51866440e+00]
 [-1.03061067e-01  4.53532930e+00]
 [-8.83380573e-02  4.55199830e+00]
 [-8.09765525e-02  4.56866290e+00]
 [-7.36150477e-02  4.58533170e+00]
 [-6.62535429e-02  4.60200070e+00]
 [-6.62535429e-02  4.61865690e+00]
 [-6.62535429e-02  4.63533470e+00]
 [-6.62535429e-02  4.65200010e+00]
 [-6.62535429e-02  4.66867000e+00]
 [-6.62535429e-02  4.68533660e+00]
 [-6.62535429e-02  4.70199210e+00]
 [-6.62535429e-02  4.71866250e+00]
 [-6.62535429e-02  4.73532900e+00]
 [-6.62535429e-02  4.75198160e+00]
 [-6.62535429e-02  4.76867920e+00]
 [-6.62535429e-02  4.78533210e+00]
 [-6.62535429e-02  4.80199790e+00]
 [-6.62535429e-02  4.81801670e+00]
 [-6.62535429e-02  4.83469150e+00]
 [-6.62535429e-02  4.85156410e+00]
 [-6.62535429e-02  4.86865220e+00]
 [-6.62535429e-02  4.88533470e+00]
 [-5.88920382e-02  4.90199460e+00]
 [-4.41690286e-02  4.91866870e+00]
 [-3.68075239e-02  4.93533840e+00]
 [-2.94460191e-02  4.95200170e+00]
 [-2.94460191e-02  4.96867210e+00]
 [-2.94460191e-02  4.98533380e+00]
 [-2.94460191e-02  5.00199770e+00]
 [-2.94460191e-02  5.01867390e+00]
 [-2.20845143e-02  5.03534490e+00]
 [-2.20845143e-02  5.05200950e+00]
 [-2.20845143e-02  5.06866640e+00]
 [-2.20845143e-02  5.08533400e+00]
 [-2.20845143e-02  5.10200370e+00]
 [-2.20845143e-02  5.11867350e+00]
 [-2.20845143e-02  5.13533540e+00]
 [-2.20845143e-02  5.15200830e+00]
 [-2.20845143e-02  5.16807550e+00]
 [-2.20845143e-02  5.18474820e+00]
 [-2.20845143e-02  5.20149000e+00]
 [-2.20845143e-02  5.21817020e+00]
 [-2.20845143e-02  5.23486480e+00]
 [-2.20845143e-02  5.25157030e+00]
 [-2.20845143e-02  5.26821090e+00]
 [-2.20845143e-02  5.28490420e+00]
 [-2.20845143e-02  5.30154510e+00]
 [-2.20845143e-02  5.31818320e+00]
 [-2.20845143e-02  5.33487830e+00]
 [-2.20845143e-02  5.35157150e+00]
 [-2.20845143e-02  5.36819940e+00]
 [-2.20845143e-02  5.38490400e+00]
 [-2.20845143e-02  5.40153030e+00]
 [-2.20845143e-02  5.41819160e+00]
 [-2.20845143e-02  5.43486770e+00]
 [-2.20845143e-02  5.45153420e+00]
 [-2.20845143e-02  5.46820490e+00]
 [-2.20845143e-02  5.48473880e+00]
 [-2.20845143e-02  5.50153220e+00]
 [-2.20845143e-02  5.51820120e+00]
 [-2.20845143e-02  5.53486380e+00]
 [-2.20845143e-02  5.55153070e+00]
 [-2.20845143e-02  5.56821410e+00]
 [-2.20845143e-02  5.58490310e+00]
 [-2.20845143e-02  5.60155100e+00]
 [-2.20845143e-02  5.61811330e+00]
 [-2.20845143e-02  5.63488380e+00]
 [-2.20845143e-02  5.65150980e+00]
 [-2.20845143e-02  5.66821480e+00]
 [-2.20845143e-02  5.68490790e+00]
 [-2.20845143e-02  5.70157770e+00]
 [-2.20845143e-02  5.71817940e+00]
 [-2.20845143e-02  5.73487080e+00]
 [-2.20845143e-02  5.75155460e+00]
 [-2.20845143e-02  5.76820560e+00]
 [-2.20845143e-02  5.78485370e+00]
 [-2.20845143e-02  5.80154480e+00]
 [-2.20845143e-02  5.81803780e+00]
 [-2.20845143e-02  5.83474210e+00]
 [-2.20845143e-02  5.85157960e+00]
 [-2.20845143e-02  5.86820630e+00]
 [-2.20845143e-02  5.88491200e+00]
 [-2.20845143e-02  5.90155530e+00]
 [-2.20845143e-02  5.91818910e+00]
 [-2.20845143e-02  5.93487180e+00]
 [-2.20845143e-02  5.95158040e+00]
 [-2.20845143e-02  5.96820710e+00]
 [-2.20845143e-02  5.98485840e+00]
 [-2.20845143e-02  6.00155540e+00]
 [-2.20845143e-02  6.01818330e+00]
 [-2.20845143e-02  6.03489690e+00]]","[[1.40000000e+02 2.32999446e-05]
 [1.40000000e+02 1.86280999e-02]
 [1.40000000e+02 3.52657000e-02]
 [1.40000000e+02 5.19379999e-02]
 [1.40000000e+02 6.85881999e-02]
 [1.40000000e+02 8.52590000e-02]
 [1.40000000e+02 1.01922400e-01]
 [1.40000000e+02 1.18588400e-01]
 [1.40000000e+02 1.35250300e-01]
 [1.40000000e+02 1.51927900e-01]
 [1.40000000e+02 1.68587600e-01]
 [1.40000000e+02 1.85261400e-01]
 [1.40000000e+02 2.01927200e-01]
 [1.40000000e+02 2.18564200e-01]
 [1.40000000e+02 2.35267400e-01]
 [1.40000000e+02 2.51934300e-01]
 [1.40000000e+02 2.68591200e-01]
 [1.40000000e+02 2.84814700e-01]
 [1.40000000e+02 3.01476500e-01]
 [1.40000000e+02 3.18109400e-01]
 [1.40000000e+02 3.34813500e-01]
 [1.40000000e+02 3.51490400e-01]
 [1.40000000e+02 3.68139500e-01]
 [1.40000000e+02 3.84821400e-01]
 [1.40000000e+02 4.01469300e-01]
 [1.40000000e+02 4.18110200e-01]
 [1.40000000e+02 4.34835500e-01]
 [1.40000000e+02 4.51492400e-01]
 [1.40000000e+02 4.68118600e-01]
 [1.40000000e+02 4.84664300e-01]
 [1.40000000e+02 5.01483500e-01]
 [1.40000000e+02 5.18084200e-01]
 [1.40000000e+02 5.34812000e-01]
 [1.40000000e+02 5.51488700e-01]
 [1.40000000e+02 5.68145600e-01]
 [1.40000000e+02 5.84827300e-01]
 [1.40000000e+02 6.01467000e-01]
 [1.40000000e+02 6.18116700e-01]
 [1.40000000e+02 6.34812600e-01]
 [1.40000000e+02 6.51496300e-01]
 [1.40000000e+02 6.68146200e-01]
 [1.40000000e+02 6.84777200e-01]
 [1.40000000e+02 7.01474200e-01]
 [1.40000000e+02 7.18119300e-01]
 [1.40000000e+02 7.34812600e-01]
 [1.40000000e+02 7.51498400e-01]
 [1.40000000e+02 7.68148600e-01]
 [1.40000000e+02 7.84668300e-01]
 [1.40000000e+02 8.01457400e-01]
 [1.40000000e+02 8.18120000e-01]
 [1.40000000e+02 8.34666500e-01]
 [1.40000000e+02 8.51495800e-01]
 [1.40000000e+02 8.68135200e-01]
 [1.40000000e+02 8.84775000e-01]
 [1.40000000e+02 9.01491100e-01]
 [1.40000000e+02 9.18121500e-01]
 [1.40000000e+02 9.34823200e-01]
 [1.40000000e+02 9.51489100e-01]
 [1.40000000e+02 9.68089400e-01]
 [1.40000000e+02 9.84754800e-01]
 [1.41693146e+02 1.00142540e+00]
 [1.44232865e+02 1.01859330e+00]
 [1.45079438e+02 1.03527150e+00]
 [1.45079438e+02 1.05194150e+00]
 [1.45926011e+02 1.06860030e+00]
 [1.47619157e+02 1.08527810e+00]
 [1.50158877e+02 1.10194050e+00]
 [1.52698596e+02 1.11858970e+00]
 [1.53545169e+02 1.13526400e+00]
 [1.57778034e+02 1.15194520e+00]
 [1.59471180e+02 1.16861240e+00]
 [1.62857472e+02 1.18527620e+00]
 [1.64550618e+02 1.20194290e+00]
 [1.66243765e+02 1.21861080e+00]
 [1.69630057e+02 1.23527210e+00]
 [1.70476630e+02 1.25194470e+00]
 [1.70476630e+02 1.26861360e+00]
 [1.71323203e+02 1.28528440e+00]
 [1.71323203e+02 1.30194800e+00]
 [1.72169776e+02 1.31861620e+00]
 [1.73016349e+02 1.33528910e+00]
 [1.73862922e+02 1.35194480e+00]
 [1.74709495e+02 1.36860500e+00]
 [1.76402641e+02 1.38527280e+00]
 [1.78095787e+02 1.40194160e+00]
 [1.80635506e+02 1.41861300e+00]
 [1.83175225e+02 1.43527670e+00]
 [1.83175225e+02 1.45193790e+00]
 [1.84021799e+02 1.46860740e+00]
 [1.84868372e+02 1.48527540e+00]
 [1.87408091e+02 1.50194120e+00]
 [1.89101237e+02 1.51857960e+00]
 [1.92487529e+02 1.53526420e+00]
 [1.95027248e+02 1.55194120e+00]
 [1.95027248e+02 1.56860150e+00]
 [1.97566967e+02 1.58527930e+00]
 [2.09418990e+02 1.60194560e+00]
 [2.20424440e+02 1.61860750e+00]
 [2.29736743e+02 1.63527340e+00]
 [2.45821631e+02 1.65194810e+00]
 [2.51747642e+02 1.66861150e+00]
 [2.54287362e+02 1.68527750e+00]
 [2.55000000e+02 1.70194420e+00]
 [2.55000000e+02 1.71862370e+00]
 [2.55000000e+02 1.73528660e+00]
 [2.55000000e+02 1.75195400e+00]
 [2.55000000e+02 1.76861610e+00]
 [2.55000000e+02 1.78527710e+00]
 [2.55000000e+02 1.80194600e+00]
 [2.55000000e+02 1.81861490e+00]
 [2.55000000e+02 1.83528510e+00]
 [2.55000000e+02 1.85195100e+00]
 [2.55000000e+02 1.86861880e+00]
 [2.55000000e+02 1.88528540e+00]
 [2.55000000e+02 1.90195410e+00]
 [2.55000000e+02 1.91862210e+00]
 [2.55000000e+02 1.93528000e+00]
 [2.55000000e+02 1.95195340e+00]
 [2.55000000e+02 1.96861710e+00]
 [2.55000000e+02 1.98481200e+00]
 [2.55000000e+02 2.00150050e+00]
 [2.55000000e+02 2.01813790e+00]
 [2.55000000e+02 2.03483130e+00]
 [2.55000000e+02 2.05151830e+00]
 [2.55000000e+02 2.06814370e+00]
 [2.55000000e+02 2.08485010e+00]
 [2.54287362e+02 2.10150400e+00]
 [2.50054496e+02 2.11861020e+00]
 [2.45821631e+02 2.13530170e+00]
 [2.41588766e+02 2.15195280e+00]
 [2.38202474e+02 2.16862570e+00]
 [2.33123035e+02 2.18528250e+00]
 [2.28890170e+02 2.20195470e+00]
 [2.25503878e+02 2.21863270e+00]
 [2.22117586e+02 2.23528380e+00]
 [2.17038147e+02 2.25199790e+00]
 [2.12805282e+02 2.26861130e+00]
 [2.07725844e+02 2.28525040e+00]
 [2.03492979e+02 2.30195600e+00]
 [1.95027248e+02 2.31861860e+00]
 [1.89101237e+02 2.33530640e+00]
 [1.80635506e+02 2.35197020e+00]
 [1.78095787e+02 2.36862960e+00]
 [1.68783484e+02 2.38529660e+00]
 [1.64550618e+02 2.40195510e+00]
 [1.59471180e+02 2.41862240e+00]
 [1.51852023e+02 2.43529110e+00]
 [1.45926011e+02 2.45177950e+00]
 [1.39153427e+02 2.46863920e+00]
 [1.33227416e+02 2.48531030e+00]
 [1.28994550e+02 2.50196390e+00]
 [1.23068539e+02 2.51864090e+00]
 [1.17989101e+02 2.53529940e+00]
 [1.12909662e+02 2.55196600e+00]
 [1.07830224e+02 2.56863460e+00]
 [1.04443932e+02 2.58530180e+00]
 [1.02750786e+02 2.60196060e+00]
 [1.02750786e+02 2.61863050e+00]
 [1.02750786e+02 2.63529510e+00]
 [1.02750786e+02 2.65196490e+00]
 [1.01904213e+02 2.66862790e+00]
 [1.01904213e+02 2.68528340e+00]
 [1.01057640e+02 2.70196150e+00]
 [1.00211067e+02 2.71863690e+00]
 [9.93644937e+01 2.73529420e+00]
 [9.85179206e+01 2.75196730e+00]
 [9.59782015e+01 2.76862770e+00]
 [9.17453362e+01 2.78529630e+00]
 [8.75124710e+01 2.80196360e+00]
 [8.41261788e+01 2.81862460e+00]
 [7.90467405e+01 2.83529900e+00]
 [7.82001674e+01 2.85196790e+00]
 [7.65070213e+01 2.86863590e+00]
 [7.65070213e+01 2.88531370e+00]
 [7.65070213e+01 2.90196980e+00]
 [7.65070213e+01 2.91864040e+00]
 [7.48138752e+01 2.93529390e+00]
 [7.39673022e+01 2.95197040e+00]
 [7.05810100e+01 2.96862920e+00]
 [6.88878639e+01 2.98531800e+00]
 [6.63481448e+01 3.00196600e+00]
 [6.29618526e+01 3.01863800e+00]
 [5.95755604e+01 3.03530130e+00]
 [5.61892682e+01 3.05197830e+00]
 [5.36495490e+01 3.06863180e+00]
 [5.02632568e+01 3.08531110e+00]
 [4.60303916e+01 3.10196380e+00]
 [4.26440994e+01 3.11863330e+00]
 [4.09509533e+01 3.13529890e+00]
 [3.92578072e+01 3.15197430e+00]
 [3.67180881e+01 3.16863700e+00]
 [3.58715150e+01 3.18531160e+00]
 [3.58715150e+01 3.20195560e+00]
 [3.58715150e+01 3.21859750e+00]
 [3.58715150e+01 3.23530410e+00]
 [3.41783689e+01 3.25197610e+00]
 [3.16386498e+01 3.26863770e+00]
 [2.65592115e+01 3.28531390e+00]
 [2.50000000e+01 3.30196660e+00]
 [2.50000000e+01 3.31864420e+00]
 [2.50000000e+01 3.33531010e+00]
 [2.50000000e+01 3.35198570e+00]
 [2.50000000e+01 3.36865100e+00]
 [2.50000000e+01 3.38531790e+00]
 [2.50000000e+01 3.40198120e+00]
 [2.50000000e+01 3.41864990e+00]
 [2.50000000e+01 3.43531300e+00]
 [2.50000000e+01 3.45199040e+00]
 [2.50000000e+01 3.46864570e+00]
 [2.50000000e+01 3.48531880e+00]
 [2.50000000e+01 3.50197800e+00]
 [2.50000000e+01 3.51865530e+00]
 [2.50000000e+01 3.53531450e+00]
 [2.50000000e+01 3.55198810e+00]
 [2.50000000e+01 3.56864570e+00]
 [2.50000000e+01 3.58470990e+00]
 [2.50000000e+01 3.60152920e+00]
 [2.50000000e+01 3.61817080e+00]
 [2.50000000e+01 3.63480170e+00]
 [2.50000000e+01 3.65154620e+00]
 [2.50000000e+01 3.66817010e+00]
 [2.50000000e+01 3.68487950e+00]
 [2.50000000e+01 3.70153070e+00]
 [2.50000000e+01 3.71801010e+00]
 [2.50000000e+01 3.73480350e+00]
 [2.50000000e+01 3.75147260e+00]
 [2.50000000e+01 3.76820820e+00]
 [2.50000000e+01 3.78480380e+00]
 [2.50000000e+01 3.80152220e+00]
 [2.50000000e+01 3.81816900e+00]
 [2.50000000e+01 3.83487210e+00]
 [2.50000000e+01 3.85154550e+00]
 [2.50000000e+01 3.86819950e+00]
 [2.50000000e+01 3.88487870e+00]
 [2.50000000e+01 3.90153290e+00]
 [2.65592115e+01 3.91801550e+00]
 [2.82523576e+01 3.93529700e+00]
 [3.07920767e+01 3.95200340e+00]
 [3.16386498e+01 3.96865630e+00]
 [3.24852228e+01 3.98532390e+00]
 [3.33317959e+01 4.00199220e+00]
 [3.41783689e+01 4.01864760e+00]
 [3.50249420e+01 4.03533220e+00]
 [3.67180881e+01 4.05199210e+00]
 [3.75646611e+01 4.06865440e+00]
 [3.84112342e+01 4.08532000e+00]
 [4.01043802e+01 4.10199110e+00]
 [4.09509533e+01 4.11865350e+00]
 [4.17975263e+01 4.13532670e+00]
 [4.26440994e+01 4.15199910e+00]
 [4.34906724e+01 4.16865770e+00]
 [4.51838185e+01 4.18532960e+00]
 [4.60303916e+01 4.20198720e+00]
 [4.85701107e+01 4.21861460e+00]
 [5.11098299e+01 4.23532400e+00]
 [5.11098299e+01 4.25200500e+00]
 [5.36495490e+01 4.26866620e+00]
 [5.53426951e+01 4.28532800e+00]
 [5.61892682e+01 4.30199070e+00]
 [5.95755604e+01 4.31864890e+00]
 [6.12687065e+01 4.33532520e+00]
 [6.55015717e+01 4.35199540e+00]
 [7.05810100e+01 4.36866140e+00]
 [7.65070213e+01 4.38532500e+00]
 [7.90467405e+01 4.40198750e+00]
 [8.15864596e+01 4.41865900e+00]
 [8.24330327e+01 4.43532950e+00]
 [8.49727518e+01 4.45198460e+00]
 [8.83590440e+01 4.46866270e+00]
 [9.34384823e+01 4.48532320e+00]
 [1.00211067e+02 4.50198730e+00]
 [1.05290505e+02 4.51866440e+00]
 [1.10369943e+02 4.53532930e+00]
 [1.14602809e+02 4.55199830e+00]
 [1.17142528e+02 4.56866290e+00]
 [1.18835674e+02 4.58533170e+00]
 [1.18835674e+02 4.60200070e+00]
 [1.18835674e+02 4.61865690e+00]
 [1.19682247e+02 4.63533470e+00]
 [1.19682247e+02 4.65200010e+00]
 [1.21375393e+02 4.66867000e+00]
 [1.23068539e+02 4.68533660e+00]
 [1.24761685e+02 4.70199210e+00]
 [1.26454831e+02 4.71866250e+00]
 [1.29841123e+02 4.73532900e+00]
 [1.34073989e+02 4.75198160e+00]
 [1.35767135e+02 4.76867920e+00]
 [1.38306854e+02 4.78533210e+00]
 [1.40000000e+02 4.80199790e+00]
 [1.40000000e+02 4.81801670e+00]
 [1.40000000e+02 4.83469150e+00]
 [1.40846573e+02 4.85156410e+00]
 [1.40846573e+02 4.86865220e+00]
 [1.43386292e+02 4.88533470e+00]
 [1.44232865e+02 4.90199460e+00]
 [1.45079438e+02 4.91866870e+00]
 [1.45079438e+02 4.93533840e+00]
 [1.45079438e+02 4.95200170e+00]
 [1.45079438e+02 4.96867210e+00]
 [1.45079438e+02 4.98533380e+00]
 [1.45079438e+02 5.00199770e+00]
 [1.45079438e+02 5.01867390e+00]
 [1.45079438e+02 5.03534490e+00]
 [1.45079438e+02 5.05200950e+00]
 [1.45079438e+02 5.06866640e+00]
 [1.45079438e+02 5.08533400e+00]
 [1.45079438e+02 5.10200370e+00]
 [1.45079438e+02 5.11867350e+00]
 [1.45079438e+02 5.13533540e+00]
 [1.45079438e+02 5.15200830e+00]
 [1.45079438e+02 5.16807550e+00]
 [1.45079438e+02 5.18474820e+00]
 [1.45079438e+02 5.20149000e+00]
 [1.45079438e+02 5.21817020e+00]
 [1.45079438e+02 5.23486480e+00]
 [1.45079438e+02 5.25157030e+00]
 [1.45079438e+02 5.26821090e+00]
 [1.45079438e+02 5.28490420e+00]
 [1.45079438e+02 5.30154510e+00]
 [1.45079438e+02 5.31818320e+00]
 [1.45079438e+02 5.33487830e+00]
 [1.45079438e+02 5.35157150e+00]
 [1.45079438e+02 5.36819940e+00]
 [1.45079438e+02 5.38490400e+00]
 [1.45079438e+02 5.40153030e+00]
 [1.45079438e+02 5.41819160e+00]
 [1.45079438e+02 5.43486770e+00]
 [1.45079438e+02 5.45153420e+00]
 [1.45079438e+02 5.46820490e+00]
 [1.45079438e+02 5.48473880e+00]
 [1.45079438e+02 5.50153220e+00]
 [1.45079438e+02 5.51820120e+00]
 [1.45079438e+02 5.53486380e+00]
 [1.45079438e+02 5.55153070e+00]
 [1.45079438e+02 5.56821410e+00]
 [1.45079438e+02 5.58490310e+00]
 [1.45079438e+02 5.60155100e+00]
 [1.45079438e+02 5.61811330e+00]
 [1.45079438e+02 5.63488380e+00]
 [1.45079438e+02 5.65150980e+00]
 [1.45079438e+02 5.66821480e+00]
 [1.45079438e+02 5.68490790e+00]
 [1.45079438e+02 5.70157770e+00]
 [1.45079438e+02 5.71817940e+00]
 [1.45079438e+02 5.73487080e+00]
 [1.45079438e+02 5.75155460e+00]
 [1.45079438e+02 5.76820560e+00]
 [1.45079438e+02 5.78485370e+00]
 [1.45079438e+02 5.80154480e+00]
 [1.45079438e+02 5.81803780e+00]
 [1.45079438e+02 5.83474210e+00]
 [1.45079438e+02 5.85157960e+00]
 [1.45079438e+02 5.86820630e+00]
 [1.45079438e+02 5.88491200e+00]
 [1.45079438e+02 5.90155530e+00]
 [1.45079438e+02 5.91818910e+00]
 [1.45079438e+02 5.93487180e+00]
 [1.45079438e+02 5.95158040e+00]
 [1.45079438e+02 5.96820710e+00]
 [1.45079438e+02 5.98485840e+00]
 [1.45079438e+02 6.00155540e+00]
 [1.45079438e+02 6.01818330e+00]
 [1.45079438e+02 6.03489690e+00]]","[[ 0.00000000e+00  2.32999446e-05]
 [ 0.00000000e+00  1.86280999e-02]
 [ 0.00000000e+00  3.52657000e-02]
 [ 0.00000000e+00  5.19379999e-02]
 [ 0.00000000e+00  6.85881999e-02]
 [ 0.00000000e+00  8.52590000e-02]
 [ 0.00000000e+00  1.01922400e-01]
 [ 0.00000000e+00  1.18588400e-01]
 [ 0.00000000e+00  1.35250300e-01]
 [ 0.00000000e+00  1.51927900e-01]
 [ 0.00000000e+00  1.68587600e-01]
 [ 0.00000000e+00  1.85261400e-01]
 [ 0.00000000e+00  2.01927200e-01]
 [ 0.00000000e+00  2.18564200e-01]
 [ 0.00000000e+00  2.35267400e-01]
 [ 0.00000000e+00  2.51934300e-01]
 [ 0.00000000e+00  2.68591200e-01]
 [ 0.00000000e+00  2.84814700e-01]
 [ 0.00000000e+00  3.01476500e-01]
 [ 0.00000000e+00  3.18109400e-01]
 [ 0.00000000e+00  3.34813500e-01]
 [ 0.00000000e+00  3.51490400e-01]
 [ 0.00000000e+00  3.68139500e-01]
 [ 0.00000000e+00  3.84821400e-01]
 [ 0.00000000e+00  4.01469300e-01]
 [ 0.00000000e+00  4.18110200e-01]
 [ 0.00000000e+00  4.34835500e-01]
 [ 0.00000000e+00  4.51492400e-01]
 [ 0.00000000e+00  4.68118600e-01]
 [ 0.00000000e+00  4.84664300e-01]
 [ 0.00000000e+00  5.01483500e-01]
 [ 0.00000000e+00  5.18084200e-01]
 [ 0.00000000e+00  5.34812000e-01]
 [ 0.00000000e+00  5.51488700e-01]
 [ 0.00000000e+00  5.68145600e-01]
 [ 0.00000000e+00  5.84827300e-01]
 [ 0.00000000e+00  6.01467000e-01]
 [ 0.00000000e+00  6.18116700e-01]
 [ 0.00000000e+00  6.34812600e-01]
 [ 0.00000000e+00  6.51496300e-01]
 [ 0.00000000e+00  6.68146200e-01]
 [ 0.00000000e+00  6.84777200e-01]
 [ 0.00000000e+00  7.01474200e-01]
 [ 0.00000000e+00  7.18119300e-01]
 [ 0.00000000e+00  7.34812600e-01]
 [ 0.00000000e+00  7.51498400e-01]
 [ 0.00000000e+00  7.68148600e-01]
 [ 0.00000000e+00  7.84668300e-01]
 [ 0.00000000e+00  8.01457400e-01]
 [ 0.00000000e+00  8.18120000e-01]
 [ 0.00000000e+00  8.34666500e-01]
 [ 0.00000000e+00  8.51495800e-01]
 [ 0.00000000e+00  8.68135200e-01]
 [ 0.00000000e+00  8.84775000e-01]
 [ 0.00000000e+00  9.01491100e-01]
 [ 0.00000000e+00  9.18121500e-01]
 [ 0.00000000e+00  9.34823200e-01]
 [ 0.00000000e+00  9.51489100e-01]
 [ 0.00000000e+00  9.68089400e-01]
 [ 0.00000000e+00  9.84754800e-01]
 [ 1.47230095e-02  1.00142540e+00]
 [ 3.68075239e-02  1.01859330e+00]
 [ 4.41690286e-02  1.03527150e+00]
 [ 4.41690286e-02  1.05194150e+00]
 [ 5.15305334e-02  1.06860030e+00]
 [ 6.62535429e-02  1.08527810e+00]
 [ 8.83380573e-02  1.10194050e+00]
 [ 1.10422572e-01  1.11858970e+00]
 [ 1.17784076e-01  1.13526400e+00]
 [ 1.54591600e-01  1.15194520e+00]
 [ 1.69314610e-01  1.16861240e+00]
 [ 1.98760629e-01  1.18527620e+00]
 [ 2.13483638e-01  1.20194290e+00]
 [ 2.28206648e-01  1.21861080e+00]
 [ 2.57652667e-01  1.23527210e+00]
 [ 2.65014172e-01  1.25194470e+00]
 [ 2.65014172e-01  1.26861360e+00]
 [ 2.72375677e-01  1.28528440e+00]
 [ 2.72375677e-01  1.30194800e+00]
 [ 2.79737181e-01  1.31861620e+00]
 [ 2.87098686e-01  1.33528910e+00]
 [ 2.94460191e-01  1.35194480e+00]
 [ 3.01821696e-01  1.36860500e+00]
 [ 3.16544705e-01  1.38527280e+00]
 [ 3.31267715e-01  1.40194160e+00]
 [ 3.53352229e-01  1.41861300e+00]
 [ 3.75436743e-01  1.43527670e+00]
 [ 3.75436743e-01  1.45193790e+00]
 [ 3.82798248e-01  1.46860740e+00]
 [ 3.90159753e-01  1.48527540e+00]
 [ 4.12244267e-01  1.50194120e+00]
 [ 4.26967277e-01  1.51857960e+00]
 [ 4.56413296e-01  1.53526420e+00]
 [ 4.78497810e-01  1.55194120e+00]
 [ 4.78497810e-01  1.56860150e+00]
 [ 5.00582324e-01  1.58527930e+00]
 [ 6.03643391e-01  1.60194560e+00]
 [ 6.99342953e-01  1.61860750e+00]
 [ 7.80319506e-01  1.63527340e+00]
 [ 9.20188096e-01  1.65194810e+00]
 [ 9.71718630e-01  1.66861150e+00]
 [ 9.93803144e-01  1.68527750e+00]
 [ 1.00000000e+00  1.70194420e+00]
 [ 1.00000000e+00  1.71862370e+00]
 [ 1.00000000e+00  1.73528660e+00]
 [ 1.00000000e+00  1.75195400e+00]
 [ 1.00000000e+00  1.76861610e+00]
 [ 1.00000000e+00  1.78527710e+00]
 [ 1.00000000e+00  1.80194600e+00]
 [ 1.00000000e+00  1.81861490e+00]
 [ 1.00000000e+00  1.83528510e+00]
 [ 1.00000000e+00  1.85195100e+00]
 [ 1.00000000e+00  1.86861880e+00]
 [ 1.00000000e+00  1.88528540e+00]
 [ 1.00000000e+00  1.90195410e+00]
 [ 1.00000000e+00  1.91862210e+00]
 [ 1.00000000e+00  1.93528000e+00]
 [ 1.00000000e+00  1.95195340e+00]
 [ 1.00000000e+00  1.96861710e+00]
 [ 1.00000000e+00  1.98481200e+00]
 [ 1.00000000e+00  2.00150050e+00]
 [ 1.00000000e+00  2.01813790e+00]
 [ 1.00000000e+00  2.03483130e+00]
 [ 1.00000000e+00  2.05151830e+00]
 [ 1.00000000e+00  2.06814370e+00]
 [ 1.00000000e+00  2.08485010e+00]
 [ 9.93803144e-01  2.10150400e+00]
 [ 9.56995620e-01  2.11861020e+00]
 [ 9.20188096e-01  2.13530170e+00]
 [ 8.83380573e-01  2.15195280e+00]
 [ 8.53934554e-01  2.16862570e+00]
 [ 8.09765525e-01  2.18528250e+00]
 [ 7.72958001e-01  2.20195470e+00]
 [ 7.43511982e-01  2.21863270e+00]
 [ 7.14065963e-01  2.23528380e+00]
 [ 6.69896934e-01  2.25199790e+00]
 [ 6.33089410e-01  2.26861130e+00]
 [ 5.88920382e-01  2.28525040e+00]
 [ 5.52112858e-01  2.30195600e+00]
 [ 4.78497810e-01  2.31861860e+00]
 [ 4.26967277e-01  2.33530640e+00]
 [ 3.53352229e-01  2.35197020e+00]
 [ 3.31267715e-01  2.36862960e+00]
 [ 2.50291162e-01  2.38529660e+00]
 [ 2.13483638e-01  2.40195510e+00]
 [ 1.69314610e-01  2.41862240e+00]
 [ 1.03061067e-01  2.43529110e+00]
 [ 5.15305334e-02  2.45177950e+00]
 [-7.36150477e-03  2.46863920e+00]
 [-5.88920382e-02  2.48531030e+00]
 [-9.56995620e-02  2.50196390e+00]
 [-1.47230095e-01  2.51864090e+00]
 [-1.91399124e-01  2.53529940e+00]
 [-2.35568153e-01  2.55196600e+00]
 [-2.79737181e-01  2.56863460e+00]
 [-3.09183200e-01  2.58530180e+00]
 [-3.23906210e-01  2.60196060e+00]
 [-3.23906210e-01  2.61863050e+00]
 [-3.23906210e-01  2.63529510e+00]
 [-3.23906210e-01  2.65196490e+00]
 [-3.31267715e-01  2.66862790e+00]
 [-3.31267715e-01  2.68528340e+00]
 [-3.38629219e-01  2.70196150e+00]
 [-3.45990724e-01  2.71863690e+00]
 [-3.53352229e-01  2.73529420e+00]
 [-3.60713734e-01  2.75196730e+00]
 [-3.82798248e-01  2.76862770e+00]
 [-4.19605772e-01  2.78529630e+00]
 [-4.56413296e-01  2.80196360e+00]
 [-4.85859315e-01  2.81862460e+00]
 [-5.30028344e-01  2.83529900e+00]
 [-5.37389848e-01  2.85196790e+00]
 [-5.52112858e-01  2.86863590e+00]
 [-5.52112858e-01  2.88531370e+00]
 [-5.52112858e-01  2.90196980e+00]
 [-5.52112858e-01  2.91864040e+00]
 [-5.66835867e-01  2.93529390e+00]
 [-5.74197372e-01  2.95197040e+00]
 [-6.03643391e-01  2.96862920e+00]
 [-6.18366401e-01  2.98531800e+00]
 [-6.40450915e-01  3.00196600e+00]
 [-6.69896934e-01  3.01863800e+00]
 [-6.99342953e-01  3.03530130e+00]
 [-7.28788972e-01  3.05197830e+00]
 [-7.50873487e-01  3.06863180e+00]
 [-7.80319506e-01  3.08531110e+00]
 [-8.17127030e-01  3.10196380e+00]
 [-8.46573049e-01  3.11863330e+00]
 [-8.61296058e-01  3.13529890e+00]
 [-8.76019068e-01  3.15197430e+00]
 [-8.98103582e-01  3.16863700e+00]
 [-9.05465087e-01  3.18531160e+00]
 [-9.05465087e-01  3.20195560e+00]
 [-9.05465087e-01  3.21859750e+00]
 [-9.05465087e-01  3.23530410e+00]
 [-9.20188096e-01  3.25197610e+00]
 [-9.42272611e-01  3.26863770e+00]
 [-9.86441639e-01  3.28531390e+00]
 [-1.00000000e+00  3.30196660e+00]
 [-1.00000000e+00  3.31864420e+00]
 [-1.00000000e+00  3.33531010e+00]
 [-1.00000000e+00  3.35198570e+00]
 [-1.00000000e+00  3.36865100e+00]
 [-1.00000000e+00  3.38531790e+00]
 [-1.00000000e+00  3.40198120e+00]
 [-1.00000000e+00  3.41864990e+00]
 [-1.00000000e+00  3.43531300e+00]
 [-1.00000000e+00  3.45199040e+00]
 [-1.00000000e+00  3.46864570e+00]
 [-1.00000000e+00  3.48531880e+00]
 [-1.00000000e+00  3.50197800e+00]
 [-1.00000000e+00  3.51865530e+00]
 [-1.00000000e+00  3.53531450e+00]
 [-1.00000000e+00  3.55198810e+00]
 [-1.00000000e+00  3.56864570e+00]
 [-1.00000000e+00  3.58470990e+00]
 [-1.00000000e+00  3.60152920e+00]
 [-1.00000000e+00  3.61817080e+00]
 [-1.00000000e+00  3.63480170e+00]
 [-1.00000000e+00  3.65154620e+00]
 [-1.00000000e+00  3.66817010e+00]
 [-1.00000000e+00  3.68487950e+00]
 [-1.00000000e+00  3.70153070e+00]
 [-1.00000000e+00  3.71801010e+00]
 [-1.00000000e+00  3.73480350e+00]
 [-1.00000000e+00  3.75147260e+00]
 [-1.00000000e+00  3.76820820e+00]
 [-1.00000000e+00  3.78480380e+00]
 [-1.00000000e+00  3.80152220e+00]
 [-1.00000000e+00  3.81816900e+00]
 [-1.00000000e+00  3.83487210e+00]
 [-1.00000000e+00  3.85154550e+00]
 [-1.00000000e+00  3.86819950e+00]
 [-1.00000000e+00  3.88487870e+00]
 [-1.00000000e+00  3.90153290e+00]
 [-9.86441639e-01  3.91801550e+00]
 [-9.71718630e-01  3.93529700e+00]
 [-9.49634116e-01  3.95200340e+00]
 [-9.42272611e-01  3.96865630e+00]
 [-9.34911106e-01  3.98532390e+00]
 [-9.27549601e-01  4.00199220e+00]
 [-9.20188096e-01  4.01864760e+00]
 [-9.12826592e-01  4.03533220e+00]
 [-8.98103582e-01  4.05199210e+00]
 [-8.90742077e-01  4.06865440e+00]
 [-8.83380573e-01  4.08532000e+00]
 [-8.68657563e-01  4.10199110e+00]
 [-8.61296058e-01  4.11865350e+00]
 [-8.53934554e-01  4.13532670e+00]
 [-8.46573049e-01  4.15199910e+00]
 [-8.39211544e-01  4.16865770e+00]
 [-8.24488534e-01  4.18532960e+00]
 [-8.17127030e-01  4.20198720e+00]
 [-7.95042515e-01  4.21861460e+00]
 [-7.72958001e-01  4.23532400e+00]
 [-7.72958001e-01  4.25200500e+00]
 [-7.50873487e-01  4.26866620e+00]
 [-7.36150477e-01  4.28532800e+00]
 [-7.28788972e-01  4.30199070e+00]
 [-6.99342953e-01  4.31864890e+00]
 [-6.84619944e-01  4.33532520e+00]
 [-6.47812420e-01  4.35199540e+00]
 [-6.03643391e-01  4.36866140e+00]
 [-5.52112858e-01  4.38532500e+00]
 [-5.30028344e-01  4.40198750e+00]
 [-5.07943829e-01  4.41865900e+00]
 [-5.00582324e-01  4.43532950e+00]
 [-4.78497810e-01  4.45198460e+00]
 [-4.49051791e-01  4.46866270e+00]
 [-4.04882762e-01  4.48532320e+00]
 [-3.45990724e-01  4.50198730e+00]
 [-3.01821696e-01  4.51866440e+00]
 [-2.57652667e-01  4.53532930e+00]
 [-2.20845143e-01  4.55199830e+00]
 [-1.98760629e-01  4.56866290e+00]
 [-1.84037619e-01  4.58533170e+00]
 [-1.84037619e-01  4.60200070e+00]
 [-1.84037619e-01  4.61865690e+00]
 [-1.76676115e-01  4.63533470e+00]
 [-1.76676115e-01  4.65200010e+00]
 [-1.61953105e-01  4.66867000e+00]
 [-1.47230095e-01  4.68533660e+00]
 [-1.32507086e-01  4.70199210e+00]
 [-1.17784076e-01  4.71866250e+00]
 [-8.83380573e-02  4.73532900e+00]
 [-5.15305334e-02  4.75198160e+00]
 [-3.68075239e-02  4.76867920e+00]
 [-1.47230095e-02  4.78533210e+00]
 [ 0.00000000e+00  4.80199790e+00]
 [ 0.00000000e+00  4.81801670e+00]
 [ 0.00000000e+00  4.83469150e+00]
 [ 7.36150477e-03  4.85156410e+00]
 [ 7.36150477e-03  4.86865220e+00]
 [ 2.94460191e-02  4.88533470e+00]
 [ 3.68075239e-02  4.90199460e+00]
 [ 4.41690286e-02  4.91866870e+00]
 [ 4.41690286e-02  4.93533840e+00]
 [ 4.41690286e-02  4.95200170e+00]
 [ 4.41690286e-02  4.96867210e+00]
 [ 4.41690286e-02  4.98533380e+00]
 [ 4.41690286e-02  5.00199770e+00]
 [ 4.41690286e-02  5.01867390e+00]
 [ 4.41690286e-02  5.03534490e+00]
 [ 4.41690286e-02  5.05200950e+00]
 [ 4.41690286e-02  5.06866640e+00]
 [ 4.41690286e-02  5.08533400e+00]
 [ 4.41690286e-02  5.10200370e+00]
 [ 4.41690286e-02  5.11867350e+00]
 [ 4.41690286e-02  5.13533540e+00]
 [ 4.41690286e-02  5.15200830e+00]
 [ 4.41690286e-02  5.16807550e+00]
 [ 4.41690286e-02  5.18474820e+00]
 [ 4.41690286e-02  5.20149000e+00]
 [ 4.41690286e-02  5.21817020e+00]
 [ 4.41690286e-02  5.23486480e+00]
 [ 4.41690286e-02  5.25157030e+00]
 [ 4.41690286e-02  5.26821090e+00]
 [ 4.41690286e-02  5.28490420e+00]
 [ 4.41690286e-02  5.30154510e+00]
 [ 4.41690286e-02  5.31818320e+00]
 [ 4.41690286e-02  5.33487830e+00]
 [ 4.41690286e-02  5.35157150e+00]
 [ 4.41690286e-02  5.36819940e+00]
 [ 4.41690286e-02  5.38490400e+00]
 [ 4.41690286e-02  5.40153030e+00]
 [ 4.41690286e-02  5.41819160e+00]
 [ 4.41690286e-02  5.43486770e+00]
 [ 4.41690286e-02  5.45153420e+00]
 [ 4.41690286e-02  5.46820490e+00]
 [ 4.41690286e-02  5.48473880e+00]
 [ 4.41690286e-02  5.50153220e+00]
 [ 4.41690286e-02  5.51820120e+00]
 [ 4.41690286e-02  5.53486380e+00]
 [ 4.41690286e-02  5.55153070e+00]
 [ 4.41690286e-02  5.56821410e+00]
 [ 4.41690286e-02  5.58490310e+00]
 [ 4.41690286e-02  5.60155100e+00]
 [ 4.41690286e-02  5.61811330e+00]
 [ 4.41690286e-02  5.63488380e+00]
 [ 4.41690286e-02  5.65150980e+00]
 [ 4.41690286e-02  5.66821480e+00]
 [ 4.41690286e-02  5.68490790e+00]
 [ 4.41690286e-02  5.70157770e+00]
 [ 4.41690286e-02  5.71817940e+00]
 [ 4.41690286e-02  5.73487080e+00]
 [ 4.41690286e-02  5.75155460e+00]
 [ 4.41690286e-02  5.76820560e+00]
 [ 4.41690286e-02  5.78485370e+00]
 [ 4.41690286e-02  5.80154480e+00]
 [ 4.41690286e-02  5.81803780e+00]
 [ 4.41690286e-02  5.83474210e+00]
 [ 4.41690286e-02  5.85157960e+00]
 [ 4.41690286e-02  5.86820630e+00]
 [ 4.41690286e-02  5.88491200e+00]
 [ 4.41690286e-02  5.90155530e+00]
 [ 4.41690286e-02  5.91818910e+00]
 [ 4.41690286e-02  5.93487180e+00]
 [ 4.41690286e-02  5.95158040e+00]
 [ 4.41690286e-02  5.96820710e+00]
 [ 4.41690286e-02  5.98485840e+00]
 [ 4.41690286e-02  6.00155540e+00]
 [ 4.41690286e-02  6.01818330e+00]
 [ 4.41690286e-02  6.03489690e+00]]",33,A,non_immersive,No,8,2024-05-03_11h55.16.498,Experiment_VR_non_immersive,59.9910253441098,
1,../amsterdam_dynamic_facial_expression_set/F01-Disgust-Face Forward.mp4,arousal,right,HV-LA,direct,0,,,,,0,1,1,0,"[[ 0.          0.0181748 ]
 [ 0.          0.0347292 ]
 [ 0.          0.0514448 ]
 [ 0.          0.0684698 ]
 [ 0.          0.0847252 ]
 [ 0.          0.1022412 ]
 [ 0.          0.1180877 ]
 [ 0.          0.135575  ]
 [ 0.          0.1513993 ]
 [ 0.          0.1688831 ]
 [ 0.          0.1846907 ]
 [ 0.          0.2022862 ]
 [ 0.          0.2180823 ]
 [ 0.          0.2355477 ]
 [ 0.          0.2514137 ]
 [ 0.          0.2688502 ]
 [ 0.          0.2847289 ]
 [ 0.          0.3022241 ]
 [ 0.          0.3180286 ]
 [ 0.          0.3354886 ]
 [ 0.          0.3512193 ]
 [ 0.          0.3689126 ]
 [ 0.          0.3846088 ]
 [ 0.          0.4022506 ]
 [ 0.          0.4180334 ]
 [ 0.09569956  0.4355569 ]
 [ 0.80976552  0.4513988 ]
 [ 1.          0.4689001 ]
 [ 1.          0.4847306 ]
 [ 1.          0.5022569 ]
 [ 1.          0.5179314 ]
 [ 1.          0.5355672 ]
 [ 1.          0.5513806 ]
 [ 1.          0.5688834 ]
 [ 1.          0.58472   ]
 [ 1.          0.6022667 ]
 [ 1.          0.618094  ]
 [ 1.          0.6355406 ]
 [ 1.          0.6513199 ]
 [ 1.          0.6686772 ]
 [ 1.          0.6847197 ]
 [ 1.          0.7021575 ]
 [ 1.          0.7180889 ]
 [ 1.          0.7355309 ]
 [ 1.          0.7514325 ]
 [ 1.          0.7689012 ]
 [ 1.          0.784612  ]
 [ 1.          0.8022206 ]
 [ 1.          0.8180954 ]
 [ 1.          0.8355944 ]
 [ 1.          0.8514349 ]
 [ 1.          0.8689468 ]
 [ 1.          0.8847215 ]
 [ 1.          0.9022266 ]
 [ 1.          0.9180958 ]
 [ 1.          0.9354984 ]
 [ 1.          0.9514294 ]
 [ 1.          0.969013  ]
 [ 1.          0.9847275 ]
 [ 1.          1.0021888 ]
 [ 1.          1.0180423 ]
 [ 1.          1.0355466 ]
 [ 1.          1.0512705 ]
 [ 1.          1.0686839 ]
 [ 1.          1.0847319 ]
 [ 1.          1.1022572 ]
 [ 1.          1.118105  ]
 [ 1.          1.1355576 ]
 [ 1.          1.1514127 ]
 [ 1.          1.1687877 ]
 [ 1.          1.1847271 ]
 [ 1.          1.2021329 ]
 [ 1.          1.2180364 ]
 [ 1.          1.2355744 ]
 [ 1.          1.2514443 ]
 [ 1.          1.2689076 ]
 [ 1.          1.2847331 ]
 [ 1.          1.3021972 ]
 [ 1.          1.3181001 ]
 [ 1.          1.3355426 ]
 [ 1.          1.3514435 ]
 [ 1.          1.3689093 ]
 [ 1.          1.3847237 ]
 [ 1.          1.4022764 ]
 [ 1.          1.4180795 ]
 [ 1.          1.435337  ]
 [ 1.          1.4512906 ]
 [ 1.          1.4687296 ]
 [ 1.          1.4846231 ]
 [ 1.          1.5021088 ]
 [ 1.          1.5181101 ]
 [ 1.          1.535561  ]
 [ 1.          1.5514074 ]
 [ 1.          1.5689303 ]
 [ 1.          1.5847185 ]
 [ 1.          1.6021838 ]
 [ 1.          1.6180493 ]
 [ 1.          1.635566  ]
 [ 1.          1.6514444 ]
 [ 1.          1.6689107 ]
 [ 1.          1.6847414 ]
 [ 1.          1.7022639 ]
 [ 1.          1.7181076 ]
 [ 1.          1.7355684 ]
 [ 1.          1.7514047 ]
 [ 1.          1.7689857 ]
 [ 1.          1.7847392 ]
 [ 1.          1.8021904 ]
 [ 1.          1.8179554 ]
 [ 1.          1.8355823 ]
 [ 1.          1.8513843 ]
 [ 1.          1.8689683 ]
 [ 1.          1.8847409 ]
 [ 1.          1.9022429 ]
 [ 1.          1.9181124 ]
 [ 1.          1.9355666 ]
 [ 1.          1.9514092 ]
 [ 1.          1.9690654 ]
 [ 1.          1.9847418 ]
 [ 1.          2.0022892 ]
 [ 1.          2.0180518 ]
 [ 1.          2.0355471 ]
 [ 1.          2.0513194 ]
 [ 1.          2.0689542 ]
 [ 1.          2.0847433 ]
 [ 1.          2.1022549 ]
 [ 1.          2.1181151 ]
 [ 1.          2.1355069 ]
 [ 1.          2.1512643 ]
 [ 1.          2.168736  ]
 [ 1.          2.1847457 ]
 [ 1.          2.2021804 ]
 [ 1.          2.2181184 ]
 [ 1.          2.2355615 ]
 [ 1.          2.2514518 ]
 [ 1.          2.2689509 ]
 [ 1.          2.2847414 ]
 [ 1.          2.3022701 ]
 [ 1.          2.3181188 ]
 [ 1.          2.3355553 ]
 [ 1.          2.3514558 ]
 [ 1.          2.3689991 ]
 [ 1.          2.3847428 ]
 [ 1.          2.4022795 ]
 [ 1.          2.4181252 ]
 [ 1.          2.435583  ]
 [ 1.          2.4514496 ]
 [ 1.          2.4689609 ]
 [ 1.          2.4847436 ]
 [ 1.          2.5022608 ]
 [ 1.          2.5181275 ]
 [ 1.          2.535534  ]
 [ 1.          2.551266  ]
 [ 1.          2.5688322 ]
 [ 1.          2.5847539 ]
 [ 1.          2.6021093 ]
 [ 1.          2.6181235 ]
 [ 1.          2.6355792 ]
 [ 1.          2.6514166 ]
 [ 1.          2.6689107 ]
 [ 1.          2.6847368 ]
 [ 1.          2.702297  ]
 [ 1.          2.7181245 ]
 [ 1.          2.7355725 ]
 [ 0.96435713  2.7514423 ]
 [ 0.84657305  2.7688757 ]
 [ 0.69934295  2.7847544 ]
 [ 0.55947436  2.8021971 ]
 [ 0.47113631  2.8180519 ]
 [ 0.41960577  2.83559   ]
 [ 0.39752126  2.8514632 ]
 [ 0.39752126  2.868833  ]
 [ 0.39015975  2.884755  ]
 [ 0.37543674  2.9021342 ]
 [ 0.34599072  2.9181434 ]
 [ 0.29446019  2.9354885 ]
 [ 0.20612213  2.9514252 ]
 [ 0.1619531   2.9689658 ]
 [ 0.13986859  2.9847628 ]
 [ 0.08833806  3.0022618 ]
 [ 0.02208451  3.0180557 ]
 [-0.03680752  3.0356018 ]
 [-0.09569956  3.0514685 ]
 [-0.17667611  3.0690165 ]
 [-0.25765267  3.0847607 ]
 [-0.28709869  3.1020884 ]
 [-0.33862922  3.1179676 ]
 [-0.38279825  3.1354409 ]
 [-0.44169029  3.1514316 ]
 [-0.47849781  3.1690235 ]
 [-0.51530533  3.1847607 ]
 [-0.55947436  3.2021712 ]
 [-0.59628189  3.2180564 ]
 [-0.66253543  3.2356004 ]
 [-0.72878897  3.2514674 ]
 [-0.80240402  3.2689272 ]
 [-0.86865756  3.2847645 ]
 [-0.89810358  3.3022743 ]
 [-0.91282659  3.3181354 ]
 [-0.9201881   3.3355739 ]
 [-0.94227261  3.3514539 ]
 [-0.94227261  3.3689752 ]
 [-0.95699562  3.3847639 ]
 [-0.96435713  3.4021556 ]
 [-0.97171863  3.4181354 ]
 [-0.97908013  3.4355909 ]
 [-0.98644164  3.4513043 ]
 [-0.99380314  3.4687562 ]
 [-1.          3.4846534 ]
 [-1.          3.502311  ]
 [-1.          3.5181405 ]
 [-1.          3.5356289 ]
 [-1.          3.5514697 ]
 [-1.          3.5689048 ]
 [-1.          3.5847495 ]
 [-1.          3.6022502 ]
 [-1.          3.6181369 ]
 [-1.          3.6354741 ]
 [-1.          3.6514154 ]
 [-1.          3.6689221 ]
 [-1.          3.6846582 ]
 [-1.          3.7022951 ]
 [-1.          3.7180604 ]
 [-1.          3.7354924 ]
 [-1.          3.7513245 ]
 [-1.          3.7690504 ]
 [-0.96435713  3.7847694 ]
 [-0.87601907  3.8021436 ]
 [-0.78031951  3.8180683 ]
 [-0.68461994  3.8353782 ]
 [-0.63308941  3.8513207 ]
 [-0.60364339  3.8687157 ]
 [-0.60364339  3.8847449 ]
 [-0.60364339  3.9023089 ]
 [-0.60364339  3.9181456 ]
 [-0.58892038  3.9356012 ]
 [-0.57419737  3.9514083 ]
 [-0.56683587  3.9690361 ]
 [-0.55947436  3.9846827 ]
 [-0.55947436  4.0021577 ]
 [-0.54475135  4.0180096 ]
 [-0.54475135  4.0356507 ]
 [-0.53002834  4.0514228 ]
 [-0.50794383  4.068982  ]
 [-0.47849781  4.0847755 ]
 [-0.44169029  4.1022957 ]
 [-0.37543674  4.1181098 ]
 [-0.25029116  4.1356057 ]
 [-0.13250709  4.1514162 ]
 [-0.09569956  4.1690387 ]
 [-0.09569956  4.1847854 ]
 [-0.09569956  4.2021124 ]
 [-0.09569956  4.2179847 ]
 [-0.08833806  4.2355013 ]
 [-0.07361505  4.2514813 ]
 [-0.06625354  4.2689691 ]
 [-0.05889204  4.2847723 ]
 [-0.05889204  4.3022883 ]
 [-0.05153053  4.3181551 ]
 [-0.05153053  4.3356432 ]
 [-0.05153053  4.3514411 ]
 [-0.05153053  4.3689505 ]
 [-0.05153053  4.3847902 ]
 [-0.05153053  4.4022726 ]
 [-0.05153053  4.4181499 ]
 [-0.05153053  4.4354756 ]
 [-0.05153053  4.4514795 ]
 [-0.05153053  4.4689288 ]
 [-0.05153053  4.484778  ]
 [-0.05153053  4.5022607 ]
 [-0.05153053  4.5181476 ]
 [-0.05153053  4.535602  ]
 [-0.05153053  4.5514464 ]
 [-0.05153053  4.5689608 ]
 [-0.05153053  4.5847722 ]
 [-0.05153053  4.6020896 ]
 [-0.05153053  4.617982  ]
 [-0.05153053  4.635424  ]
 [-0.05153053  4.651487  ]
 [-0.05153053  4.6688221 ]
 [-0.05153053  4.6848096 ]
 [-0.05153053  4.7023556 ]
 [-0.05153053  4.7181527 ]
 [-0.05153053  4.7356622 ]
 [-0.05153053  4.7514597 ]
 [-0.05153053  4.7690929 ]
 [-0.05153053  4.7847844 ]
 [-0.05889204  4.8023256 ]
 [-0.05889204  4.8181179 ]
 [-0.05889204  4.8356466 ]
 [-0.05889204  4.8514926 ]
 [-0.05889204  4.8689256 ]
 [-0.05889204  4.8847872 ]
 [-0.05889204  4.902183  ]
 [-0.05889204  4.9180068 ]
 [-0.05889204  4.9356175 ]
 [-0.05889204  4.9514566 ]
 [-0.05889204  4.9689489 ]
 [-0.05889204  4.9847649 ]
 [-0.05889204  5.0023167 ]
 [-0.05889204  5.0181612 ]
 [-0.05889204  5.035598  ]
 [-0.05889204  5.0514957 ]
 [-0.05889204  5.0689841 ]
 [-0.05889204  5.0848361 ]
 [-0.05889204  5.1024764 ]
 [-0.05889204  5.1181251 ]
 [-0.05889204  5.135656  ]
 [-0.05889204  5.1515064 ]
 [-0.05889204  5.168901  ]
 [-0.05889204  5.1847877 ]
 [-0.05889204  5.2022989 ]
 [-0.05889204  5.2181577 ]
 [-0.05889204  5.235508  ]
 [-0.05889204  5.251331  ]
 [-0.05889204  5.268755  ]
 [-0.05889204  5.2847662 ]
 [-0.05889204  5.3023087 ]
 [-0.05889204  5.3181634 ]
 [-0.05889204  5.3355691 ]
 [-0.05889204  5.3514462 ]
 [-0.05889204  5.3689221 ]
 [-0.05889204  5.3847831 ]
 [-0.05889204  5.4022565 ]
 [-0.05889204  5.4180865 ]
 [-0.05889204  5.4354301 ]
 [-0.05889204  5.4513654 ]
 [-0.05889204  5.4689241 ]
 [-0.05889204  5.4847695 ]
 [-0.05889204  5.5022553 ]
 [-0.05889204  5.5180971 ]
 [-0.05889204  5.5355798 ]
 [-0.05889204  5.5514527 ]
 [-0.05889204  5.5689745 ]
 [-0.05889204  5.5847071 ]
 [-0.05889204  5.6021402 ]
 [-0.05889204  5.6180057 ]
 [-0.05889204  5.6354719 ]
 [-0.05889204  5.6515044 ]
 [-0.05889204  5.6689415 ]
 [-0.05889204  5.6848044 ]
 [-0.05889204  5.702275  ]
 [-0.05889204  5.7180995 ]
 [-0.05889204  5.735595  ]
 [-0.05889204  5.7515027 ]
 [-0.05889204  5.7689178 ]
 [-0.05889204  5.7847993 ]
 [-0.05889204  5.802279  ]
 [-0.05889204  5.8180666 ]
 [-0.05889204  5.8355928 ]
 [-0.05889204  5.8515054 ]
 [-0.05889204  5.8689235 ]
 [-0.05889204  5.8847733 ]
 [-0.05889204  5.9022473 ]
 [-0.05889204  5.9181682 ]
 [-0.05889204  5.9355194 ]
 [-0.05889204  5.9514006 ]
 [-0.05889204  5.9687977 ]
 [-0.05889204  5.9847838 ]
 [-0.05889204  6.0023269 ]
 [-0.05889204  6.0181902 ]
 [-0.05889204  6.0352891 ]
 [-0.05889204  6.0519312 ]]",6.01,None,None,None,None,None,False,False,False,False,False,False,False,"[[ 0.00000000e+00  7.09993765e-06]
 [ 0.00000000e+00  1.92155000e-02]
 [ 0.00000000e+00  3.58778000e-02]
 [ 0.00000000e+00  5.25695999e-02]
 [ 0.00000000e+00  6.92534000e-02]
 [ 0.00000000e+00  8.59014000e-02]
 [ 0.00000000e+00  1.02582900e-01]
 [ 0.00000000e+00  1.19087000e-01]
 [ 0.00000000e+00  1.35853500e-01]
 [ 0.00000000e+00  1.52418000e-01]
 [ 0.00000000e+00  1.69231200e-01]
 [ 0.00000000e+00  1.85881900e-01]
 [ 0.00000000e+00  2.02417700e-01]
 [ 0.00000000e+00  2.19092600e-01]
 [ 0.00000000e+00  2.35880300e-01]
 [ 0.00000000e+00  2.52555900e-01]
 [ 0.00000000e+00  2.69238100e-01]
 [ 0.00000000e+00  2.85884400e-01]
 [ 0.00000000e+00  3.02581900e-01]
 [ 0.00000000e+00  3.19280300e-01]
 [ 0.00000000e+00  3.35877300e-01]
 [ 0.00000000e+00  3.52546100e-01]
 [ 0.00000000e+00  3.69250000e-01]
 [ 0.00000000e+00  3.85906300e-01]
 [ 0.00000000e+00  4.02585400e-01]
 [ 0.00000000e+00  4.19276500e-01]
 [ 0.00000000e+00  4.35815700e-01]
 [ 0.00000000e+00  4.53019300e-01]
 [ 0.00000000e+00  4.69702900e-01]
 [ 0.00000000e+00  4.85912000e-01]
 [ 0.00000000e+00  5.02419000e-01]
 [ 0.00000000e+00  5.19089300e-01]
 [ 0.00000000e+00  5.35869200e-01]
 [ 0.00000000e+00  5.52567600e-01]
 [ 0.00000000e+00  5.69255900e-01]
 [ 0.00000000e+00  5.85908900e-01]
 [ 0.00000000e+00  6.02586500e-01]
 [ 0.00000000e+00  6.19250300e-01]
 [ 0.00000000e+00  6.35886200e-01]
 [ 0.00000000e+00  6.52580200e-01]
 [ 0.00000000e+00  6.69234900e-01]
 [ 0.00000000e+00  6.85918700e-01]
 [ 0.00000000e+00  7.02592300e-01]
 [ 0.00000000e+00  7.19244700e-01]
 [ 0.00000000e+00  7.35884100e-01]
 [ 0.00000000e+00  7.52578800e-01]
 [ 0.00000000e+00  7.69177400e-01]
 [ 0.00000000e+00  7.85903800e-01]
 [ 0.00000000e+00  8.02594600e-01]
 [ 0.00000000e+00  8.19224700e-01]
 [ 0.00000000e+00  8.35881200e-01]
 [ 0.00000000e+00  8.52427200e-01]
 [ 0.00000000e+00  8.69092200e-01]
 [ 0.00000000e+00  8.85893100e-01]
 [ 0.00000000e+00  9.02592300e-01]
 [ 0.00000000e+00  9.19237100e-01]
 [ 0.00000000e+00  9.35729100e-01]
 [ 0.00000000e+00  9.52572600e-01]
 [ 0.00000000e+00  9.69254400e-01]
 [ 0.00000000e+00  9.85894800e-01]
 [ 0.00000000e+00  1.00259280e+00]
 [ 0.00000000e+00  1.01924910e+00]
 [ 0.00000000e+00  1.03588700e+00]
 [ 0.00000000e+00  1.05249730e+00]
 [ 0.00000000e+00  1.06926500e+00]
 [ 0.00000000e+00  1.08594050e+00]
 [ 7.36150477e-03  1.10247670e+00]
 [ 8.09765525e-02  1.11923450e+00]
 [ 1.84037619e-01  1.13589650e+00]
 [ 2.87098686e-01  1.15258610e+00]
 [ 3.53352229e-01  1.16922390e+00]
 [ 3.68075239e-01  1.18589780e+00]
 [ 3.68075239e-01  1.20259570e+00]
 [ 3.82798248e-01  1.21927600e+00]
 [ 4.04882762e-01  1.23588420e+00]
 [ 4.26967277e-01  1.25243700e+00]
 [ 4.78497810e-01  1.26918880e+00]
 [ 5.00582324e-01  1.28592270e+00]
 [ 5.37389848e-01  1.30252190e+00]
 [ 5.88920382e-01  1.31923270e+00]
 [ 6.69896934e-01  1.33588860e+00]
 [ 6.99342953e-01  1.35259310e+00]
 [ 7.28788972e-01  1.36927320e+00]
 [ 7.50873487e-01  1.38590020e+00]
 [ 7.80319506e-01  1.40260230e+00]
 [ 8.17127030e-01  1.41926380e+00]
 [ 8.31850039e-01  1.43588600e+00]
 [ 8.39211544e-01  1.45257890e+00]
 [ 8.61296058e-01  1.46926690e+00]
 [ 8.76019068e-01  1.48592360e+00]
 [ 8.98103582e-01  1.50252620e+00]
 [ 9.05465087e-01  1.51926670e+00]
 [ 9.20188096e-01  1.53589650e+00]
 [ 9.27549601e-01  1.55244030e+00]
 [ 9.27549601e-01  1.56927510e+00]
 [ 9.34911106e-01  1.58592840e+00]
 [ 9.34911106e-01  1.60260060e+00]
 [ 9.42272611e-01  1.61927270e+00]
 [ 9.42272611e-01  1.63589670e+00]
 [ 9.42272611e-01  1.65261280e+00]
 [ 9.42272611e-01  1.66919870e+00]
 [ 9.42272611e-01  1.68591850e+00]
 [ 9.42272611e-01  1.70253060e+00]
 [ 9.42272611e-01  1.71925910e+00]
 [ 9.42272611e-01  1.73588960e+00]
 [ 9.42272611e-01  1.75259350e+00]
 [ 9.42272611e-01  1.76927970e+00]
 [ 9.42272611e-01  1.78592140e+00]
 [ 9.42272611e-01  1.80243760e+00]
 [ 9.27549601e-01  1.81911400e+00]
 [ 9.05465087e-01  1.83589010e+00]
 [ 8.83380573e-01  1.85258770e+00]
 [ 8.46573049e-01  1.86927740e+00]
 [ 8.17127030e-01  1.88593250e+00]
 [ 7.58234991e-01  1.90253300e+00]
 [ 7.06704458e-01  1.91919930e+00]
 [ 6.40450915e-01  1.93590510e+00]
 [ 5.88920382e-01  1.95259700e+00]
 [ 5.30028344e-01  1.96920330e+00]
 [ 4.63774801e-01  1.98591580e+00]
 [ 4.34328782e-01  2.00261060e+00]
 [ 3.82798248e-01  2.01926480e+00]
 [ 3.31267715e-01  2.03590720e+00]
 [ 3.01821696e-01  2.05258750e+00]
 [ 2.57652667e-01  2.06924070e+00]
 [ 2.28206648e-01  2.08590860e+00]
 [ 2.06122134e-01  2.10253340e+00]
 [ 1.91399124e-01  2.11920380e+00]
 [ 1.61953105e-01  2.13590760e+00]
 [ 1.32507086e-01  2.15254880e+00]
 [ 1.03061067e-01  2.16917280e+00]
 [ 7.36150477e-02  2.18588570e+00]
 [ 3.68075239e-02  2.20244950e+00]
 [ 0.00000000e+00  2.21919840e+00]
 [-1.47230095e-02  2.23574610e+00]
 [-2.94460191e-02  2.25257980e+00]
 [-5.15305334e-02  2.26927710e+00]
 [-5.88920382e-02  2.28592980e+00]
 [-8.09765525e-02  2.30253360e+00]
 [-9.56995620e-02  2.31920800e+00]
 [-1.47230095e-01  2.33590830e+00]
 [-1.91399124e-01  2.35260480e+00]
 [-2.28206648e-01  2.36928420e+00]
 [-2.65014172e-01  2.38591010e+00]
 [-2.72375677e-01  2.40261650e+00]
 [-2.72375677e-01  2.41927940e+00]
 [-2.79737181e-01  2.43591010e+00]
 [-2.87098686e-01  2.45260910e+00]
 [-3.45990724e-01  2.46920940e+00]
 [-4.04882762e-01  2.48594250e+00]
 [-4.34328782e-01  2.50253780e+00]
 [-4.56413296e-01  2.51920780e+00]
 [-4.71136305e-01  2.53590620e+00]
 [-4.71136305e-01  2.55253930e+00]
 [-4.93220820e-01  2.56911840e+00]
 [-5.00582324e-01  2.58588140e+00]
 [-5.44751353e-01  2.60261600e+00]
 [-5.88920382e-01  2.61920570e+00]
 [-6.25727906e-01  2.63591350e+00]
 [-6.47812420e-01  2.65259930e+00]
 [-6.84619944e-01  2.66929150e+00]
 [-6.99342953e-01  2.68591620e+00]
 [-7.06704458e-01  2.70254390e+00]
 [-7.28788972e-01  2.71920860e+00]
 [-7.50873487e-01  2.73589290e+00]
 [-7.80319506e-01  2.75258250e+00]
 [-8.02404020e-01  2.76972720e+00]
 [-8.46573049e-01  2.78639490e+00]
 [-8.76019068e-01  2.80306070e+00]
 [-9.05465087e-01  2.81972520e+00]
 [-9.05465087e-01  2.83640350e+00]
 [-9.12826592e-01  2.85306150e+00]
 [-9.27549601e-01  2.86973250e+00]
 [-9.49634116e-01  2.88640360e+00]
 [-9.71718630e-01  2.90308750e+00]
 [-9.86441639e-01  2.91971860e+00]
 [-1.00000000e+00  2.93640550e+00]
 [-1.00000000e+00  2.95305490e+00]
 [-1.00000000e+00  2.96971570e+00]
 [-1.00000000e+00  2.98639420e+00]
 [-1.00000000e+00  3.00306170e+00]
 [-1.00000000e+00  3.01972570e+00]
 [-1.00000000e+00  3.03639420e+00]
 [-1.00000000e+00  3.05305670e+00]
 [-1.00000000e+00  3.06973000e+00]
 [-1.00000000e+00  3.08639320e+00]
 [-1.00000000e+00  3.10306630e+00]
 [-1.00000000e+00  3.11972390e+00]
 [-1.00000000e+00  3.13639450e+00]
 [-1.00000000e+00  3.15305890e+00]
 [-1.00000000e+00  3.16973480e+00]
 [-1.00000000e+00  3.18639370e+00]
 [-1.00000000e+00  3.20306410e+00]
 [-1.00000000e+00  3.21972740e+00]
 [-1.00000000e+00  3.23639910e+00]
 [-1.00000000e+00  3.25306490e+00]
 [-1.00000000e+00  3.26973280e+00]
 [-1.00000000e+00  3.28639910e+00]
 [-1.00000000e+00  3.30306270e+00]
 [-1.00000000e+00  3.31972890e+00]
 [-1.00000000e+00  3.33640520e+00]
 [-1.00000000e+00  3.35305570e+00]
 [-1.00000000e+00  3.36974120e+00]
 [-1.00000000e+00  3.38639700e+00]
 [-1.00000000e+00  3.40306450e+00]
 [-1.00000000e+00  3.41973840e+00]
 [-1.00000000e+00  3.43640270e+00]
 [-1.00000000e+00  3.45307160e+00]
 [-1.00000000e+00  3.46974090e+00]
 [-1.00000000e+00  3.48640660e+00]
 [-1.00000000e+00  3.50263320e+00]
 [-1.00000000e+00  3.51927350e+00]
 [-1.00000000e+00  3.53581000e+00]
 [-1.00000000e+00  3.55261430e+00]
 [-1.00000000e+00  3.56930160e+00]
 [-1.00000000e+00  3.58593780e+00]
 [-1.00000000e+00  3.60262990e+00]
 [-1.00000000e+00  3.61930160e+00]
 [-1.00000000e+00  3.63590520e+00]
 [-1.00000000e+00  3.65259320e+00]
 [-1.00000000e+00  3.66927400e+00]
 [-1.00000000e+00  3.68594940e+00]
 [-1.00000000e+00  3.70262970e+00]
 [-1.00000000e+00  3.71928370e+00]
 [-1.00000000e+00  3.73591910e+00]
 [-1.00000000e+00  3.75246800e+00]
 [-1.00000000e+00  3.76913520e+00]
 [-1.00000000e+00  3.78594090e+00]
 [-1.00000000e+00  3.80306640e+00]
 [-1.00000000e+00  3.81973520e+00]
 [-1.00000000e+00  3.83642010e+00]
 [-1.00000000e+00  3.85305590e+00]
 [-1.00000000e+00  3.86974000e+00]
 [-1.00000000e+00  3.88640930e+00]
 [-9.86441639e-01  3.90307890e+00]
 [-9.42272611e-01  3.91975060e+00]
 [-9.27549601e-01  3.93641250e+00]
 [-9.20188096e-01  3.95307570e+00]
 [-9.20188096e-01  3.96975010e+00]
 [-9.20188096e-01  3.98641450e+00]
 [-9.05465087e-01  4.00307740e+00]
 [-8.76019068e-01  4.01974420e+00]
 [-8.17127030e-01  4.03641730e+00]
 [-7.65596496e-01  4.05307450e+00]
 [-7.21427468e-01  4.06978650e+00]
 [-7.14065963e-01  4.08642350e+00]
 [-6.99342953e-01  4.10308210e+00]
 [-6.77258439e-01  4.11974120e+00]
 [-6.47812420e-01  4.13642710e+00]
 [-6.03643391e-01  4.15308220e+00]
 [-5.52112858e-01  4.16975450e+00]
 [-5.07943829e-01  4.18642170e+00]
 [-4.71136305e-01  4.20308760e+00]
 [-4.26967277e-01  4.21974550e+00]
 [-4.12244267e-01  4.23643090e+00]
 [-4.04882762e-01  4.25308220e+00]
 [-3.97521258e-01  4.26975130e+00]
 [-3.90159753e-01  4.28641490e+00]
 [-3.68075239e-01  4.30308790e+00]
 [-3.16544705e-01  4.31975540e+00]
 [-2.42929657e-01  4.33641660e+00]
 [-1.91399124e-01  4.35308540e+00]
 [-1.61953105e-01  4.36975200e+00]
 [-1.32507086e-01  4.38642130e+00]
 [-1.17784076e-01  4.40308630e+00]
 [-1.17784076e-01  4.41975860e+00]
 [-1.10422572e-01  4.43642100e+00]
 [-1.03061067e-01  4.45308900e+00]
 [-5.15305334e-02  4.46971210e+00]
 [-1.47230095e-02  4.48642500e+00]
 [ 7.36150477e-03  4.50308290e+00]
 [ 1.47230095e-02  4.51976910e+00]
 [ 1.47230095e-02  4.53641980e+00]
 [ 1.47230095e-02  4.55308940e+00]
 [ 1.47230095e-02  4.56975690e+00]
 [ 1.47230095e-02  4.58595120e+00]
 [ 1.47230095e-02  4.60264950e+00]
 [ 1.47230095e-02  4.61930980e+00]
 [ 1.47230095e-02  4.63582990e+00]
 [ 1.47230095e-02  4.65260990e+00]
 [ 2.94460191e-02  4.66932040e+00]
 [ 2.94460191e-02  4.68595130e+00]
 [ 3.68075239e-02  4.70265420e+00]
 [ 3.68075239e-02  4.71930480e+00]
 [ 3.68075239e-02  4.73594320e+00]
 [ 3.68075239e-02  4.75261570e+00]
 [ 3.68075239e-02  4.76932130e+00]
 [ 3.68075239e-02  4.78595060e+00]
 [ 3.68075239e-02  4.80264840e+00]
 [ 3.68075239e-02  4.81975100e+00]
 [ 3.68075239e-02  4.83642630e+00]
 [ 3.68075239e-02  4.85308170e+00]
 [ 3.68075239e-02  4.86974080e+00]
 [ 3.68075239e-02  4.88645590e+00]
 [ 3.68075239e-02  4.90310160e+00]
 [ 3.68075239e-02  4.91975760e+00]
 [ 3.68075239e-02  4.93641470e+00]
 [ 3.68075239e-02  4.95309370e+00]
 [ 3.68075239e-02  4.96976950e+00]
 [ 3.68075239e-02  4.98642960e+00]
 [ 3.68075239e-02  5.00309480e+00]
 [ 3.68075239e-02  5.01975330e+00]
 [ 3.68075239e-02  5.03599330e+00]
 [ 3.68075239e-02  5.05261730e+00]
 [ 3.68075239e-02  5.06932630e+00]
 [ 3.68075239e-02  5.08597550e+00]
 [ 3.68075239e-02  5.10265150e+00]
 [ 3.68075239e-02  5.11928290e+00]
 [ 3.68075239e-02  5.13579230e+00]
 [ 3.68075239e-02  5.15262190e+00]
 [ 3.68075239e-02  5.16928550e+00]
 [ 3.68075239e-02  5.18591700e+00]
 [ 3.68075239e-02  5.20249670e+00]
 [ 3.68075239e-02  5.21931700e+00]
 [ 3.68075239e-02  5.23592900e+00]
 [ 3.68075239e-02  5.25264370e+00]
 [ 3.68075239e-02  5.26924540e+00]
 [ 3.68075239e-02  5.28596000e+00]
 [ 3.68075239e-02  5.30266240e+00]
 [ 3.68075239e-02  5.31928750e+00]
 [ 3.68075239e-02  5.33594980e+00]
 [ 3.68075239e-02  5.35263720e+00]
 [ 3.68075239e-02  5.36931890e+00]
 [ 3.68075239e-02  5.38598030e+00]
 [ 3.68075239e-02  5.40262700e+00]
 [ 3.68075239e-02  5.41929820e+00]
 [ 3.68075239e-02  5.43594960e+00]
 [ 3.68075239e-02  5.45262960e+00]
 [ 3.68075239e-02  5.46932300e+00]
 [ 3.68075239e-02  5.48591950e+00]
 [ 3.68075239e-02  5.50265730e+00]
 [ 3.68075239e-02  5.51930890e+00]
 [ 3.68075239e-02  5.53594150e+00]
 [ 3.68075239e-02  5.55250070e+00]
 [ 3.68075239e-02  5.56916870e+00]
 [ 3.68075239e-02  5.58597280e+00]
 [ 3.68075239e-02  5.60266400e+00]
 [ 3.68075239e-02  5.61931790e+00]
 [ 3.68075239e-02  5.63595370e+00]
 [ 3.68075239e-02  5.65265180e+00]
 [ 3.68075239e-02  5.66934240e+00]
 [ 3.68075239e-02  5.68596630e+00]
 [ 3.68075239e-02  5.70266780e+00]
 [ 3.68075239e-02  5.71932130e+00]
 [ 3.68075239e-02  5.73593660e+00]
 [ 3.68075239e-02  5.75265770e+00]
 [ 3.68075239e-02  5.76934240e+00]
 [ 3.68075239e-02  5.78592770e+00]
 [ 3.68075239e-02  5.80266210e+00]
 [ 3.68075239e-02  5.81929550e+00]
 [ 3.68075239e-02  5.83596480e+00]
 [ 3.68075239e-02  5.85263060e+00]
 [ 3.68075239e-02  5.86926130e+00]
 [ 3.68075239e-02  5.88596760e+00]
 [ 3.68075239e-02  5.90259320e+00]
 [ 3.68075239e-02  5.91916780e+00]
 [ 3.68075239e-02  5.93594270e+00]
 [ 3.68075239e-02  5.95265140e+00]
 [ 3.68075239e-02  5.96934110e+00]
 [ 3.68075239e-02  5.98584880e+00]
 [ 3.68075239e-02  6.00266390e+00]
 [ 3.68075239e-02  6.01929860e+00]
 [ 3.68075239e-02  6.03592690e+00]]","[[1.40000000e+02 7.09993765e-06]
 [1.40000000e+02 1.92155000e-02]
 [1.40000000e+02 3.58778000e-02]
 [1.40000000e+02 5.25695999e-02]
 [1.40000000e+02 6.92534000e-02]
 [1.40000000e+02 8.59014000e-02]
 [1.40000000e+02 1.02582900e-01]
 [1.40000000e+02 1.19087000e-01]
 [1.40000000e+02 1.35853500e-01]
 [1.40000000e+02 1.52418000e-01]
 [1.40000000e+02 1.69231200e-01]
 [1.40000000e+02 1.85881900e-01]
 [1.40000000e+02 2.02417700e-01]
 [1.40000000e+02 2.19092600e-01]
 [1.40000000e+02 2.35880300e-01]
 [1.40000000e+02 2.52555900e-01]
 [1.40000000e+02 2.69238100e-01]
 [1.40000000e+02 2.85884400e-01]
 [1.40000000e+02 3.02581900e-01]
 [1.40000000e+02 3.19280300e-01]
 [1.40000000e+02 3.35877300e-01]
 [1.40000000e+02 3.52546100e-01]
 [1.40000000e+02 3.69250000e-01]
 [1.40000000e+02 3.85906300e-01]
 [1.40000000e+02 4.02585400e-01]
 [1.40000000e+02 4.19276500e-01]
 [1.51005450e+02 4.35815700e-01]
 [2.33123035e+02 4.53019300e-01]
 [2.55000000e+02 4.69702900e-01]
 [2.55000000e+02 4.85912000e-01]
 [2.55000000e+02 5.02419000e-01]
 [2.55000000e+02 5.19089300e-01]
 [2.55000000e+02 5.35869200e-01]
 [2.55000000e+02 5.52567600e-01]
 [2.55000000e+02 5.69255900e-01]
 [2.55000000e+02 5.85908900e-01]
 [2.55000000e+02 6.02586500e-01]
 [2.55000000e+02 6.19250300e-01]
 [2.55000000e+02 6.35886200e-01]
 [2.55000000e+02 6.52580200e-01]
 [2.55000000e+02 6.69234900e-01]
 [2.55000000e+02 6.85918700e-01]
 [2.55000000e+02 7.02592300e-01]
 [2.55000000e+02 7.19244700e-01]
 [2.55000000e+02 7.35884100e-01]
 [2.55000000e+02 7.52578800e-01]
 [2.55000000e+02 7.69177400e-01]
 [2.55000000e+02 7.85903800e-01]
 [2.55000000e+02 8.02594600e-01]
 [2.55000000e+02 8.19224700e-01]
 [2.55000000e+02 8.35881200e-01]
 [2.55000000e+02 8.52427200e-01]
 [2.55000000e+02 8.69092200e-01]
 [2.55000000e+02 8.85893100e-01]
 [2.55000000e+02 9.02592300e-01]
 [2.55000000e+02 9.19237100e-01]
 [2.55000000e+02 9.35729100e-01]
 [2.55000000e+02 9.52572600e-01]
 [2.55000000e+02 9.69254400e-01]
 [2.55000000e+02 9.85894800e-01]
 [2.55000000e+02 1.00259280e+00]
 [2.55000000e+02 1.01924910e+00]
 [2.55000000e+02 1.03588700e+00]
 [2.55000000e+02 1.05249730e+00]
 [2.55000000e+02 1.06926500e+00]
 [2.55000000e+02 1.08594050e+00]
 [2.55000000e+02 1.10247670e+00]
 [2.55000000e+02 1.11923450e+00]
 [2.55000000e+02 1.13589650e+00]
 [2.55000000e+02 1.15258610e+00]
 [2.55000000e+02 1.16922390e+00]
 [2.55000000e+02 1.18589780e+00]
 [2.55000000e+02 1.20259570e+00]
 [2.55000000e+02 1.21927600e+00]
 [2.55000000e+02 1.23588420e+00]
 [2.55000000e+02 1.25243700e+00]
 [2.55000000e+02 1.26918880e+00]
 [2.55000000e+02 1.28592270e+00]
 [2.55000000e+02 1.30252190e+00]
 [2.55000000e+02 1.31923270e+00]
 [2.55000000e+02 1.33588860e+00]
 [2.55000000e+02 1.35259310e+00]
 [2.55000000e+02 1.36927320e+00]
 [2.55000000e+02 1.38590020e+00]
 [2.55000000e+02 1.40260230e+00]
 [2.55000000e+02 1.41926380e+00]
 [2.55000000e+02 1.43588600e+00]
 [2.55000000e+02 1.45257890e+00]
 [2.55000000e+02 1.46926690e+00]
 [2.55000000e+02 1.48592360e+00]
 [2.55000000e+02 1.50252620e+00]
 [2.55000000e+02 1.51926670e+00]
 [2.55000000e+02 1.53589650e+00]
 [2.55000000e+02 1.55244030e+00]
 [2.55000000e+02 1.56927510e+00]
 [2.55000000e+02 1.58592840e+00]
 [2.55000000e+02 1.60260060e+00]
 [2.55000000e+02 1.61927270e+00]
 [2.55000000e+02 1.63589670e+00]
 [2.55000000e+02 1.65261280e+00]
 [2.55000000e+02 1.66919870e+00]
 [2.55000000e+02 1.68591850e+00]
 [2.55000000e+02 1.70253060e+00]
 [2.55000000e+02 1.71925910e+00]
 [2.55000000e+02 1.73588960e+00]
 [2.55000000e+02 1.75259350e+00]
 [2.55000000e+02 1.76927970e+00]
 [2.55000000e+02 1.78592140e+00]
 [2.55000000e+02 1.80243760e+00]
 [2.55000000e+02 1.81911400e+00]
 [2.55000000e+02 1.83589010e+00]
 [2.55000000e+02 1.85258770e+00]
 [2.55000000e+02 1.86927740e+00]
 [2.55000000e+02 1.88593250e+00]
 [2.55000000e+02 1.90253300e+00]
 [2.55000000e+02 1.91919930e+00]
 [2.55000000e+02 1.93590510e+00]
 [2.55000000e+02 1.95259700e+00]
 [2.55000000e+02 1.96920330e+00]
 [2.55000000e+02 1.98591580e+00]
 [2.55000000e+02 2.00261060e+00]
 [2.55000000e+02 2.01926480e+00]
 [2.55000000e+02 2.03590720e+00]
 [2.55000000e+02 2.05258750e+00]
 [2.55000000e+02 2.06924070e+00]
 [2.55000000e+02 2.08590860e+00]
 [2.55000000e+02 2.10253340e+00]
 [2.55000000e+02 2.11920380e+00]
 [2.55000000e+02 2.13590760e+00]
 [2.55000000e+02 2.15254880e+00]
 [2.55000000e+02 2.16917280e+00]
 [2.55000000e+02 2.18588570e+00]
 [2.55000000e+02 2.20244950e+00]
 [2.55000000e+02 2.21919840e+00]
 [2.55000000e+02 2.23574610e+00]
 [2.55000000e+02 2.25257980e+00]
 [2.55000000e+02 2.26927710e+00]
 [2.55000000e+02 2.28592980e+00]
 [2.55000000e+02 2.30253360e+00]
 [2.55000000e+02 2.31920800e+00]
 [2.55000000e+02 2.33590830e+00]
 [2.55000000e+02 2.35260480e+00]
 [2.55000000e+02 2.36928420e+00]
 [2.55000000e+02 2.38591010e+00]
 [2.55000000e+02 2.40261650e+00]
 [2.55000000e+02 2.41927940e+00]
 [2.55000000e+02 2.43591010e+00]
 [2.55000000e+02 2.45260910e+00]
 [2.55000000e+02 2.46920940e+00]
 [2.55000000e+02 2.48594250e+00]
 [2.55000000e+02 2.50253780e+00]
 [2.55000000e+02 2.51920780e+00]
 [2.55000000e+02 2.53590620e+00]
 [2.55000000e+02 2.55253930e+00]
 [2.55000000e+02 2.56911840e+00]
 [2.55000000e+02 2.58588140e+00]
 [2.55000000e+02 2.60261600e+00]
 [2.55000000e+02 2.61920570e+00]
 [2.55000000e+02 2.63591350e+00]
 [2.55000000e+02 2.65259930e+00]
 [2.55000000e+02 2.66929150e+00]
 [2.55000000e+02 2.68591620e+00]
 [2.55000000e+02 2.70254390e+00]
 [2.55000000e+02 2.71920860e+00]
 [2.55000000e+02 2.73589290e+00]
 [2.50901069e+02 2.75258250e+00]
 [2.37355901e+02 2.76972720e+00]
 [2.20424440e+02 2.78639490e+00]
 [2.04339552e+02 2.80306070e+00]
 [1.94180675e+02 2.81972520e+00]
 [1.88254664e+02 2.83640350e+00]
 [1.85714945e+02 2.85306150e+00]
 [1.85714945e+02 2.86973250e+00]
 [1.84868372e+02 2.88640360e+00]
 [1.83175225e+02 2.90308750e+00]
 [1.79788933e+02 2.91971860e+00]
 [1.73862922e+02 2.93640550e+00]
 [1.63704045e+02 2.95305490e+00]
 [1.58624607e+02 2.96971570e+00]
 [1.56084888e+02 2.98639420e+00]
 [1.50158877e+02 3.00306170e+00]
 [1.42539719e+02 3.01972570e+00]
 [1.35767135e+02 3.03639420e+00]
 [1.28994550e+02 3.05305670e+00]
 [1.19682247e+02 3.06973000e+00]
 [1.10369943e+02 3.08639320e+00]
 [1.06983651e+02 3.10306630e+00]
 [1.01057640e+02 3.11972390e+00]
 [9.59782015e+01 3.13639450e+00]
 [8.92056171e+01 3.15305890e+00]
 [8.49727518e+01 3.16973480e+00]
 [8.07398866e+01 3.18639370e+00]
 [7.56604483e+01 3.20306410e+00]
 [7.14275831e+01 3.21972740e+00]
 [6.38084256e+01 3.23639910e+00]
 [5.61892682e+01 3.25306490e+00]
 [4.77235377e+01 3.26973280e+00]
 [4.01043802e+01 3.28639910e+00]
 [3.67180881e+01 3.30306270e+00]
 [3.50249420e+01 3.31972890e+00]
 [3.41783689e+01 3.33640520e+00]
 [3.16386498e+01 3.35305570e+00]
 [3.16386498e+01 3.36974120e+00]
 [2.99455037e+01 3.38639700e+00]
 [2.90989306e+01 3.40306450e+00]
 [2.82523576e+01 3.41973840e+00]
 [2.74057845e+01 3.43640270e+00]
 [2.65592115e+01 3.45307160e+00]
 [2.57126384e+01 3.46974090e+00]
 [2.50000000e+01 3.48640660e+00]
 [2.50000000e+01 3.50263320e+00]
 [2.50000000e+01 3.51927350e+00]
 [2.50000000e+01 3.53581000e+00]
 [2.50000000e+01 3.55261430e+00]
 [2.50000000e+01 3.56930160e+00]
 [2.50000000e+01 3.58593780e+00]
 [2.50000000e+01 3.60262990e+00]
 [2.50000000e+01 3.61930160e+00]
 [2.50000000e+01 3.63590520e+00]
 [2.50000000e+01 3.65259320e+00]
 [2.50000000e+01 3.66927400e+00]
 [2.50000000e+01 3.68594940e+00]
 [2.50000000e+01 3.70262970e+00]
 [2.50000000e+01 3.71928370e+00]
 [2.50000000e+01 3.73591910e+00]
 [2.50000000e+01 3.75246800e+00]
 [2.50000000e+01 3.76913520e+00]
 [2.90989306e+01 3.78594090e+00]
 [3.92578072e+01 3.80306640e+00]
 [5.02632568e+01 3.81973520e+00]
 [6.12687065e+01 3.83642010e+00]
 [6.71947178e+01 3.85305590e+00]
 [7.05810100e+01 3.86974000e+00]
 [7.05810100e+01 3.88640930e+00]
 [7.05810100e+01 3.90307890e+00]
 [7.05810100e+01 3.91975060e+00]
 [7.22741561e+01 3.93641250e+00]
 [7.39673022e+01 3.95307570e+00]
 [7.48138752e+01 3.96975010e+00]
 [7.56604483e+01 3.98641450e+00]
 [7.56604483e+01 4.00307740e+00]
 [7.73535944e+01 4.01974420e+00]
 [7.73535944e+01 4.03641730e+00]
 [7.90467405e+01 4.05307450e+00]
 [8.15864596e+01 4.06978650e+00]
 [8.49727518e+01 4.08642350e+00]
 [8.92056171e+01 4.10308210e+00]
 [9.68247745e+01 4.11974120e+00]
 [1.11216516e+02 4.13642710e+00]
 [1.24761685e+02 4.15308220e+00]
 [1.28994550e+02 4.16975450e+00]
 [1.28994550e+02 4.18642170e+00]
 [1.28994550e+02 4.20308760e+00]
 [1.28994550e+02 4.21974550e+00]
 [1.29841123e+02 4.23643090e+00]
 [1.31534270e+02 4.25308220e+00]
 [1.32380843e+02 4.26975130e+00]
 [1.33227416e+02 4.28641490e+00]
 [1.33227416e+02 4.30308790e+00]
 [1.34073989e+02 4.31975540e+00]
 [1.34073989e+02 4.33641660e+00]
 [1.34073989e+02 4.35308540e+00]
 [1.34073989e+02 4.36975200e+00]
 [1.34073989e+02 4.38642130e+00]
 [1.34073989e+02 4.40308630e+00]
 [1.34073989e+02 4.41975860e+00]
 [1.34073989e+02 4.43642100e+00]
 [1.34073989e+02 4.45308900e+00]
 [1.34073989e+02 4.46971210e+00]
 [1.34073989e+02 4.48642500e+00]
 [1.34073989e+02 4.50308290e+00]
 [1.34073989e+02 4.51976910e+00]
 [1.34073989e+02 4.53641980e+00]
 [1.34073989e+02 4.55308940e+00]
 [1.34073989e+02 4.56975690e+00]
 [1.34073989e+02 4.58595120e+00]
 [1.34073989e+02 4.60264950e+00]
 [1.34073989e+02 4.61930980e+00]
 [1.34073989e+02 4.63582990e+00]
 [1.34073989e+02 4.65260990e+00]
 [1.34073989e+02 4.66932040e+00]
 [1.34073989e+02 4.68595130e+00]
 [1.34073989e+02 4.70265420e+00]
 [1.34073989e+02 4.71930480e+00]
 [1.34073989e+02 4.73594320e+00]
 [1.34073989e+02 4.75261570e+00]
 [1.34073989e+02 4.76932130e+00]
 [1.34073989e+02 4.78595060e+00]
 [1.33227416e+02 4.80264840e+00]
 [1.33227416e+02 4.81975100e+00]
 [1.33227416e+02 4.83642630e+00]
 [1.33227416e+02 4.85308170e+00]
 [1.33227416e+02 4.86974080e+00]
 [1.33227416e+02 4.88645590e+00]
 [1.33227416e+02 4.90310160e+00]
 [1.33227416e+02 4.91975760e+00]
 [1.33227416e+02 4.93641470e+00]
 [1.33227416e+02 4.95309370e+00]
 [1.33227416e+02 4.96976950e+00]
 [1.33227416e+02 4.98642960e+00]
 [1.33227416e+02 5.00309480e+00]
 [1.33227416e+02 5.01975330e+00]
 [1.33227416e+02 5.03599330e+00]
 [1.33227416e+02 5.05261730e+00]
 [1.33227416e+02 5.06932630e+00]
 [1.33227416e+02 5.08597550e+00]
 [1.33227416e+02 5.10265150e+00]
 [1.33227416e+02 5.11928290e+00]
 [1.33227416e+02 5.13579230e+00]
 [1.33227416e+02 5.15262190e+00]
 [1.33227416e+02 5.16928550e+00]
 [1.33227416e+02 5.18591700e+00]
 [1.33227416e+02 5.20249670e+00]
 [1.33227416e+02 5.21931700e+00]
 [1.33227416e+02 5.23592900e+00]
 [1.33227416e+02 5.25264370e+00]
 [1.33227416e+02 5.26924540e+00]
 [1.33227416e+02 5.28596000e+00]
 [1.33227416e+02 5.30266240e+00]
 [1.33227416e+02 5.31928750e+00]
 [1.33227416e+02 5.33594980e+00]
 [1.33227416e+02 5.35263720e+00]
 [1.33227416e+02 5.36931890e+00]
 [1.33227416e+02 5.38598030e+00]
 [1.33227416e+02 5.40262700e+00]
 [1.33227416e+02 5.41929820e+00]
 [1.33227416e+02 5.43594960e+00]
 [1.33227416e+02 5.45262960e+00]
 [1.33227416e+02 5.46932300e+00]
 [1.33227416e+02 5.48591950e+00]
 [1.33227416e+02 5.50265730e+00]
 [1.33227416e+02 5.51930890e+00]
 [1.33227416e+02 5.53594150e+00]
 [1.33227416e+02 5.55250070e+00]
 [1.33227416e+02 5.56916870e+00]
 [1.33227416e+02 5.58597280e+00]
 [1.33227416e+02 5.60266400e+00]
 [1.33227416e+02 5.61931790e+00]
 [1.33227416e+02 5.63595370e+00]
 [1.33227416e+02 5.65265180e+00]
 [1.33227416e+02 5.66934240e+00]
 [1.33227416e+02 5.68596630e+00]
 [1.33227416e+02 5.70266780e+00]
 [1.33227416e+02 5.71932130e+00]
 [1.33227416e+02 5.73593660e+00]
 [1.33227416e+02 5.75265770e+00]
 [1.33227416e+02 5.76934240e+00]
 [1.33227416e+02 5.78592770e+00]
 [1.33227416e+02 5.80266210e+00]
 [1.33227416e+02 5.81929550e+00]
 [1.33227416e+02 5.83596480e+00]
 [1.33227416e+02 5.85263060e+00]
 [1.33227416e+02 5.86926130e+00]
 [1.33227416e+02 5.88596760e+00]
 [1.33227416e+02 5.90259320e+00]
 [1.33227416e+02 5.91916780e+00]
 [1.33227416e+02 5.93594270e+00]
 [1.33227416e+02 5.95265140e+00]
 [1.33227416e+02 5.96934110e+00]
 [1.33227416e+02 5.98584880e+00]
 [1.33227416e+02 6.00266390e+00]
 [1.33227416e+02 6.01929860e+00]
 [1.33227416e+02 6.03592690e+00]]","[[ 0.00000000e+00  7.09993765e-06]
 [ 0.00000000e+00  1.92155000e-02]
 [ 0.00000000e+00  3.58778000e-02]
 [ 0.00000000e+00  5.25695999e-02]
 [ 0.00000000e+00  6.92534000e-02]
 [ 0.00000000e+00  8.59014000e-02]
 [ 0.00000000e+00  1.02582900e-01]
 [ 0.00000000e+00  1.19087000e-01]
 [ 0.00000000e+00  1.35853500e-01]
 [ 0.00000000e+00  1.52418000e-01]
 [ 0.00000000e+00  1.69231200e-01]
 [ 0.00000000e+00  1.85881900e-01]
 [ 0.00000000e+00  2.02417700e-01]
 [ 0.00000000e+00  2.19092600e-01]
 [ 0.00000000e+00  2.35880300e-01]
 [ 0.00000000e+00  2.52555900e-01]
 [ 0.00000000e+00  2.69238100e-01]
 [ 0.00000000e+00  2.85884400e-01]
 [ 0.00000000e+00  3.02581900e-01]
 [ 0.00000000e+00  3.19280300e-01]
 [ 0.00000000e+00  3.35877300e-01]
 [ 0.00000000e+00  3.52546100e-01]
 [ 0.00000000e+00  3.69250000e-01]
 [ 0.00000000e+00  3.85906300e-01]
 [ 0.00000000e+00  4.02585400e-01]
 [ 0.00000000e+00  4.19276500e-01]
 [ 9.56995620e-02  4.35815700e-01]
 [ 8.09765525e-01  4.53019300e-01]
 [ 1.00000000e+00  4.69702900e-01]
 [ 1.00000000e+00  4.85912000e-01]
 [ 1.00000000e+00  5.02419000e-01]
 [ 1.00000000e+00  5.19089300e-01]
 [ 1.00000000e+00  5.35869200e-01]
 [ 1.00000000e+00  5.52567600e-01]
 [ 1.00000000e+00  5.69255900e-01]
 [ 1.00000000e+00  5.85908900e-01]
 [ 1.00000000e+00  6.02586500e-01]
 [ 1.00000000e+00  6.19250300e-01]
 [ 1.00000000e+00  6.35886200e-01]
 [ 1.00000000e+00  6.52580200e-01]
 [ 1.00000000e+00  6.69234900e-01]
 [ 1.00000000e+00  6.85918700e-01]
 [ 1.00000000e+00  7.02592300e-01]
 [ 1.00000000e+00  7.19244700e-01]
 [ 1.00000000e+00  7.35884100e-01]
 [ 1.00000000e+00  7.52578800e-01]
 [ 1.00000000e+00  7.69177400e-01]
 [ 1.00000000e+00  7.85903800e-01]
 [ 1.00000000e+00  8.02594600e-01]
 [ 1.00000000e+00  8.19224700e-01]
 [ 1.00000000e+00  8.35881200e-01]
 [ 1.00000000e+00  8.52427200e-01]
 [ 1.00000000e+00  8.69092200e-01]
 [ 1.00000000e+00  8.85893100e-01]
 [ 1.00000000e+00  9.02592300e-01]
 [ 1.00000000e+00  9.19237100e-01]
 [ 1.00000000e+00  9.35729100e-01]
 [ 1.00000000e+00  9.52572600e-01]
 [ 1.00000000e+00  9.69254400e-01]
 [ 1.00000000e+00  9.85894800e-01]
 [ 1.00000000e+00  1.00259280e+00]
 [ 1.00000000e+00  1.01924910e+00]
 [ 1.00000000e+00  1.03588700e+00]
 [ 1.00000000e+00  1.05249730e+00]
 [ 1.00000000e+00  1.06926500e+00]
 [ 1.00000000e+00  1.08594050e+00]
 [ 1.00000000e+00  1.10247670e+00]
 [ 1.00000000e+00  1.11923450e+00]
 [ 1.00000000e+00  1.13589650e+00]
 [ 1.00000000e+00  1.15258610e+00]
 [ 1.00000000e+00  1.16922390e+00]
 [ 1.00000000e+00  1.18589780e+00]
 [ 1.00000000e+00  1.20259570e+00]
 [ 1.00000000e+00  1.21927600e+00]
 [ 1.00000000e+00  1.23588420e+00]
 [ 1.00000000e+00  1.25243700e+00]
 [ 1.00000000e+00  1.26918880e+00]
 [ 1.00000000e+00  1.28592270e+00]
 [ 1.00000000e+00  1.30252190e+00]
 [ 1.00000000e+00  1.31923270e+00]
 [ 1.00000000e+00  1.33588860e+00]
 [ 1.00000000e+00  1.35259310e+00]
 [ 1.00000000e+00  1.36927320e+00]
 [ 1.00000000e+00  1.38590020e+00]
 [ 1.00000000e+00  1.40260230e+00]
 [ 1.00000000e+00  1.41926380e+00]
 [ 1.00000000e+00  1.43588600e+00]
 [ 1.00000000e+00  1.45257890e+00]
 [ 1.00000000e+00  1.46926690e+00]
 [ 1.00000000e+00  1.48592360e+00]
 [ 1.00000000e+00  1.50252620e+00]
 [ 1.00000000e+00  1.51926670e+00]
 [ 1.00000000e+00  1.53589650e+00]
 [ 1.00000000e+00  1.55244030e+00]
 [ 1.00000000e+00  1.56927510e+00]
 [ 1.00000000e+00  1.58592840e+00]
 [ 1.00000000e+00  1.60260060e+00]
 [ 1.00000000e+00  1.61927270e+00]
 [ 1.00000000e+00  1.63589670e+00]
 [ 1.00000000e+00  1.65261280e+00]
 [ 1.00000000e+00  1.66919870e+00]
 [ 1.00000000e+00  1.68591850e+00]
 [ 1.00000000e+00  1.70253060e+00]
 [ 1.00000000e+00  1.71925910e+00]
 [ 1.00000000e+00  1.73588960e+00]
 [ 1.00000000e+00  1.75259350e+00]
 [ 1.00000000e+00  1.76927970e+00]
 [ 1.00000000e+00  1.78592140e+00]
 [ 1.00000000e+00  1.80243760e+00]
 [ 1.00000000e+00  1.81911400e+00]
 [ 1.00000000e+00  1.83589010e+00]
 [ 1.00000000e+00  1.85258770e+00]
 [ 1.00000000e+00  1.86927740e+00]
 [ 1.00000000e+00  1.88593250e+00]
 [ 1.00000000e+00  1.90253300e+00]
 [ 1.00000000e+00  1.91919930e+00]
 [ 1.00000000e+00  1.93590510e+00]
 [ 1.00000000e+00  1.95259700e+00]
 [ 1.00000000e+00  1.96920330e+00]
 [ 1.00000000e+00  1.98591580e+00]
 [ 1.00000000e+00  2.00261060e+00]
 [ 1.00000000e+00  2.01926480e+00]
 [ 1.00000000e+00  2.03590720e+00]
 [ 1.00000000e+00  2.05258750e+00]
 [ 1.00000000e+00  2.06924070e+00]
 [ 1.00000000e+00  2.08590860e+00]
 [ 1.00000000e+00  2.10253340e+00]
 [ 1.00000000e+00  2.11920380e+00]
 [ 1.00000000e+00  2.13590760e+00]
 [ 1.00000000e+00  2.15254880e+00]
 [ 1.00000000e+00  2.16917280e+00]
 [ 1.00000000e+00  2.18588570e+00]
 [ 1.00000000e+00  2.20244950e+00]
 [ 1.00000000e+00  2.21919840e+00]
 [ 1.00000000e+00  2.23574610e+00]
 [ 1.00000000e+00  2.25257980e+00]
 [ 1.00000000e+00  2.26927710e+00]
 [ 1.00000000e+00  2.28592980e+00]
 [ 1.00000000e+00  2.30253360e+00]
 [ 1.00000000e+00  2.31920800e+00]
 [ 1.00000000e+00  2.33590830e+00]
 [ 1.00000000e+00  2.35260480e+00]
 [ 1.00000000e+00  2.36928420e+00]
 [ 1.00000000e+00  2.38591010e+00]
 [ 1.00000000e+00  2.40261650e+00]
 [ 1.00000000e+00  2.41927940e+00]
 [ 1.00000000e+00  2.43591010e+00]
 [ 1.00000000e+00  2.45260910e+00]
 [ 1.00000000e+00  2.46920940e+00]
 [ 1.00000000e+00  2.48594250e+00]
 [ 1.00000000e+00  2.50253780e+00]
 [ 1.00000000e+00  2.51920780e+00]
 [ 1.00000000e+00  2.53590620e+00]
 [ 1.00000000e+00  2.55253930e+00]
 [ 1.00000000e+00  2.56911840e+00]
 [ 1.00000000e+00  2.58588140e+00]
 [ 1.00000000e+00  2.60261600e+00]
 [ 1.00000000e+00  2.61920570e+00]
 [ 1.00000000e+00  2.63591350e+00]
 [ 1.00000000e+00  2.65259930e+00]
 [ 1.00000000e+00  2.66929150e+00]
 [ 1.00000000e+00  2.68591620e+00]
 [ 1.00000000e+00  2.70254390e+00]
 [ 1.00000000e+00  2.71920860e+00]
 [ 1.00000000e+00  2.73589290e+00]
 [ 9.64357125e-01  2.75258250e+00]
 [ 8.46573049e-01  2.76972720e+00]
 [ 6.99342953e-01  2.78639490e+00]
 [ 5.59474363e-01  2.80306070e+00]
 [ 4.71136305e-01  2.81972520e+00]
 [ 4.19605772e-01  2.83640350e+00]
 [ 3.97521258e-01  2.85306150e+00]
 [ 3.97521258e-01  2.86973250e+00]
 [ 3.90159753e-01  2.88640360e+00]
 [ 3.75436743e-01  2.90308750e+00]
 [ 3.45990724e-01  2.91971860e+00]
 [ 2.94460191e-01  2.93640550e+00]
 [ 2.06122134e-01  2.95305490e+00]
 [ 1.61953105e-01  2.96971570e+00]
 [ 1.39868591e-01  2.98639420e+00]
 [ 8.83380573e-02  3.00306170e+00]
 [ 2.20845143e-02  3.01972570e+00]
 [-3.68075239e-02  3.03639420e+00]
 [-9.56995620e-02  3.05305670e+00]
 [-1.76676115e-01  3.06973000e+00]
 [-2.57652667e-01  3.08639320e+00]
 [-2.87098686e-01  3.10306630e+00]
 [-3.38629219e-01  3.11972390e+00]
 [-3.82798248e-01  3.13639450e+00]
 [-4.41690286e-01  3.15305890e+00]
 [-4.78497810e-01  3.16973480e+00]
 [-5.15305334e-01  3.18639370e+00]
 [-5.59474363e-01  3.20306410e+00]
 [-5.96281887e-01  3.21972740e+00]
 [-6.62535429e-01  3.23639910e+00]
 [-7.28788972e-01  3.25306490e+00]
 [-8.02404020e-01  3.26973280e+00]
 [-8.68657563e-01  3.28639910e+00]
 [-8.98103582e-01  3.30306270e+00]
 [-9.12826592e-01  3.31972890e+00]
 [-9.20188096e-01  3.33640520e+00]
 [-9.42272611e-01  3.35305570e+00]
 [-9.42272611e-01  3.36974120e+00]
 [-9.56995620e-01  3.38639700e+00]
 [-9.64357125e-01  3.40306450e+00]
 [-9.71718630e-01  3.41973840e+00]
 [-9.79080135e-01  3.43640270e+00]
 [-9.86441639e-01  3.45307160e+00]
 [-9.93803144e-01  3.46974090e+00]
 [-1.00000000e+00  3.48640660e+00]
 [-1.00000000e+00  3.50263320e+00]
 [-1.00000000e+00  3.51927350e+00]
 [-1.00000000e+00  3.53581000e+00]
 [-1.00000000e+00  3.55261430e+00]
 [-1.00000000e+00  3.56930160e+00]
 [-1.00000000e+00  3.58593780e+00]
 [-1.00000000e+00  3.60262990e+00]
 [-1.00000000e+00  3.61930160e+00]
 [-1.00000000e+00  3.63590520e+00]
 [-1.00000000e+00  3.65259320e+00]
 [-1.00000000e+00  3.66927400e+00]
 [-1.00000000e+00  3.68594940e+00]
 [-1.00000000e+00  3.70262970e+00]
 [-1.00000000e+00  3.71928370e+00]
 [-1.00000000e+00  3.73591910e+00]
 [-1.00000000e+00  3.75246800e+00]
 [-1.00000000e+00  3.76913520e+00]
 [-9.64357125e-01  3.78594090e+00]
 [-8.76019068e-01  3.80306640e+00]
 [-7.80319506e-01  3.81973520e+00]
 [-6.84619944e-01  3.83642010e+00]
 [-6.33089410e-01  3.85305590e+00]
 [-6.03643391e-01  3.86974000e+00]
 [-6.03643391e-01  3.88640930e+00]
 [-6.03643391e-01  3.90307890e+00]
 [-6.03643391e-01  3.91975060e+00]
 [-5.88920382e-01  3.93641250e+00]
 [-5.74197372e-01  3.95307570e+00]
 [-5.66835867e-01  3.96975010e+00]
 [-5.59474363e-01  3.98641450e+00]
 [-5.59474363e-01  4.00307740e+00]
 [-5.44751353e-01  4.01974420e+00]
 [-5.44751353e-01  4.03641730e+00]
 [-5.30028344e-01  4.05307450e+00]
 [-5.07943829e-01  4.06978650e+00]
 [-4.78497810e-01  4.08642350e+00]
 [-4.41690286e-01  4.10308210e+00]
 [-3.75436743e-01  4.11974120e+00]
 [-2.50291162e-01  4.13642710e+00]
 [-1.32507086e-01  4.15308220e+00]
 [-9.56995620e-02  4.16975450e+00]
 [-9.56995620e-02  4.18642170e+00]
 [-9.56995620e-02  4.20308760e+00]
 [-9.56995620e-02  4.21974550e+00]
 [-8.83380573e-02  4.23643090e+00]
 [-7.36150477e-02  4.25308220e+00]
 [-6.62535429e-02  4.26975130e+00]
 [-5.88920382e-02  4.28641490e+00]
 [-5.88920382e-02  4.30308790e+00]
 [-5.15305334e-02  4.31975540e+00]
 [-5.15305334e-02  4.33641660e+00]
 [-5.15305334e-02  4.35308540e+00]
 [-5.15305334e-02  4.36975200e+00]
 [-5.15305334e-02  4.38642130e+00]
 [-5.15305334e-02  4.40308630e+00]
 [-5.15305334e-02  4.41975860e+00]
 [-5.15305334e-02  4.43642100e+00]
 [-5.15305334e-02  4.45308900e+00]
 [-5.15305334e-02  4.46971210e+00]
 [-5.15305334e-02  4.48642500e+00]
 [-5.15305334e-02  4.50308290e+00]
 [-5.15305334e-02  4.51976910e+00]
 [-5.15305334e-02  4.53641980e+00]
 [-5.15305334e-02  4.55308940e+00]
 [-5.15305334e-02  4.56975690e+00]
 [-5.15305334e-02  4.58595120e+00]
 [-5.15305334e-02  4.60264950e+00]
 [-5.15305334e-02  4.61930980e+00]
 [-5.15305334e-02  4.63582990e+00]
 [-5.15305334e-02  4.65260990e+00]
 [-5.15305334e-02  4.66932040e+00]
 [-5.15305334e-02  4.68595130e+00]
 [-5.15305334e-02  4.70265420e+00]
 [-5.15305334e-02  4.71930480e+00]
 [-5.15305334e-02  4.73594320e+00]
 [-5.15305334e-02  4.75261570e+00]
 [-5.15305334e-02  4.76932130e+00]
 [-5.15305334e-02  4.78595060e+00]
 [-5.88920382e-02  4.80264840e+00]
 [-5.88920382e-02  4.81975100e+00]
 [-5.88920382e-02  4.83642630e+00]
 [-5.88920382e-02  4.85308170e+00]
 [-5.88920382e-02  4.86974080e+00]
 [-5.88920382e-02  4.88645590e+00]
 [-5.88920382e-02  4.90310160e+00]
 [-5.88920382e-02  4.91975760e+00]
 [-5.88920382e-02  4.93641470e+00]
 [-5.88920382e-02  4.95309370e+00]
 [-5.88920382e-02  4.96976950e+00]
 [-5.88920382e-02  4.98642960e+00]
 [-5.88920382e-02  5.00309480e+00]
 [-5.88920382e-02  5.01975330e+00]
 [-5.88920382e-02  5.03599330e+00]
 [-5.88920382e-02  5.05261730e+00]
 [-5.88920382e-02  5.06932630e+00]
 [-5.88920382e-02  5.08597550e+00]
 [-5.88920382e-02  5.10265150e+00]
 [-5.88920382e-02  5.11928290e+00]
 [-5.88920382e-02  5.13579230e+00]
 [-5.88920382e-02  5.15262190e+00]
 [-5.88920382e-02  5.16928550e+00]
 [-5.88920382e-02  5.18591700e+00]
 [-5.88920382e-02  5.20249670e+00]
 [-5.88920382e-02  5.21931700e+00]
 [-5.88920382e-02  5.23592900e+00]
 [-5.88920382e-02  5.25264370e+00]
 [-5.88920382e-02  5.26924540e+00]
 [-5.88920382e-02  5.28596000e+00]
 [-5.88920382e-02  5.30266240e+00]
 [-5.88920382e-02  5.31928750e+00]
 [-5.88920382e-02  5.33594980e+00]
 [-5.88920382e-02  5.35263720e+00]
 [-5.88920382e-02  5.36931890e+00]
 [-5.88920382e-02  5.38598030e+00]
 [-5.88920382e-02  5.40262700e+00]
 [-5.88920382e-02  5.41929820e+00]
 [-5.88920382e-02  5.43594960e+00]
 [-5.88920382e-02  5.45262960e+00]
 [-5.88920382e-02  5.46932300e+00]
 [-5.88920382e-02  5.48591950e+00]
 [-5.88920382e-02  5.50265730e+00]
 [-5.88920382e-02  5.51930890e+00]
 [-5.88920382e-02  5.53594150e+00]
 [-5.88920382e-02  5.55250070e+00]
 [-5.88920382e-02  5.56916870e+00]
 [-5.88920382e-02  5.58597280e+00]
 [-5.88920382e-02  5.60266400e+00]
 [-5.88920382e-02  5.61931790e+00]
 [-5.88920382e-02  5.63595370e+00]
 [-5.88920382e-02  5.65265180e+00]
 [-5.88920382e-02  5.66934240e+00]
 [-5.88920382e-02  5.68596630e+00]
 [-5.88920382e-02  5.70266780e+00]
 [-5.88920382e-02  5.71932130e+00]
 [-5.88920382e-02  5.73593660e+00]
 [-5.88920382e-02  5.75265770e+00]
 [-5.88920382e-02  5.76934240e+00]
 [-5.88920382e-02  5.78592770e+00]
 [-5.88920382e-02  5.80266210e+00]
 [-5.88920382e-02  5.81929550e+00]
 [-5.88920382e-02  5.83596480e+00]
 [-5.88920382e-02  5.85263060e+00]
 [-5.88920382e-02  5.86926130e+00]
 [-5.88920382e-02  5.88596760e+00]
 [-5.88920382e-02  5.90259320e+00]
 [-5.88920382e-02  5.91916780e+00]
 [-5.88920382e-02  5.93594270e+00]
 [-5.88920382e-02  5.95265140e+00]
 [-5.88920382e-02  5.96934110e+00]
 [-5.88920382e-02  5.98584880e+00]
 [-5.88920382e-02  6.00266390e+00]
 [-5.88920382e-02  6.01929860e+00]
 [-5.88920382e-02  6.03592690e+00]]",33,A,non_immersive,No,8,2024-05-03_11h55.16.498,Experiment_VR_non_immersive,59.9910253441098,
4,../amsterdam_dynamic_facial_expression_set/F01-Disgust-Face Forward.mp4,arousal,right,HV-LA,direct,0,,,,,0,0,0,1,"[[ 0.          0.0207126 ]
 [ 0.          0.0372341 ]
 [ 0.          0.0539252 ]
 [ 0.          0.0709912 ]
 [ 0.          0.0872607 ]
 [ 0.          0.1047895 ]
 [ 0.          0.1206143 ]
 [ 0.          0.1380933 ]
 [ 0.          0.153809  ]
 [ 0.          0.1712891 ]
 [ 0.          0.1872634 ]
 [ 0.          0.2048242 ]
 [ 0.          0.2206263 ]
 [ 0.          0.2381504 ]
 [ 0.          0.2538961 ]
 [ 0.          0.2714371 ]
 [ 0.          0.2872605 ]
 [ 0.          0.304816  ]
 [ 0.          0.3205959 ]
 [ 0.          0.3380853 ]
 [ 0.          0.3539573 ]
 [ 0.          0.3714094 ]
 [ 0.          0.3872381 ]
 [ 0.          0.4048018 ]
 [ 0.          0.4205913 ]
 [ 0.          0.4381433 ]
 [ 0.          0.4539555 ]
 [ 0.          0.4714694 ]
 [ 0.          0.4872649 ]
 [ 0.          0.5047922 ]
 [ 0.          0.5206029 ]
 [ 0.          0.5380327 ]
 [ 0.          0.5538035 ]
 [ 0.          0.5712921 ]
 [ 0.          0.5871009 ]
 [ 0.          0.6048193 ]
 [ 0.          0.6206058 ]
 [ 0.          0.6381458 ]
 [ 0.          0.653955  ]
 [ 0.          0.6713991 ]
 [ 0.          0.6872672 ]
 [ 0.          0.7048136 ]
 [ 0.          0.7206293 ]
 [ 0.          0.7381412 ]
 [ 0.          0.7539559 ]
 [ 0.          0.7714738 ]
 [ 0.          0.7872646 ]
 [ 0.          0.8048432 ]
 [ 0.          0.8205802 ]
 [ 0.          0.8381515 ]
 [ 0.          0.8539641 ]
 [ 0.          0.8714254 ]
 [ 0.02944602  0.8871624 ]
 [ 0.03680752  0.9048259 ]
 [ 0.05153053  0.9204785 ]
 [ 0.05153053  0.9380875 ]
 [ 0.06625354  0.953867  ]
 [ 0.09569956  0.9713362 ]
 [ 0.11778408  0.9871603 ]
 [ 0.13250709  1.0047647 ]
 [ 0.13250709  1.0206418 ]
 [ 0.16931461  1.0381383 ]
 [ 0.19876063  1.0539685 ]
 [ 0.23556815  1.0714573 ]
 [ 0.24292966  1.0872765 ]
 [ 0.24292966  1.1048412 ]
 [ 0.25029116  1.1206051 ]
 [ 0.26501417  1.1381481 ]
 [ 0.27973718  1.1539056 ]
 [ 0.28709869  1.1713144 ]
 [ 0.3091832   1.18728   ]
 [ 0.33126771  1.2048042 ]
 [ 0.36807524  1.2206399 ]
 [ 0.40488276  1.2381384 ]
 [ 0.44169029  1.2539779 ]
 [ 0.47113631  1.2714806 ]
 [ 0.52266684  1.2872796 ]
 [ 0.54475135  1.3046896 ]
 [ 0.59628189  1.3204685 ]
 [ 0.59628189  1.3381537 ]
 [ 0.60364339  1.3539761 ]
 [ 0.60364339  1.371466  ]
 [ 0.6183664   1.3872775 ]
 [ 0.62572791  1.4048159 ]
