id,movie_path,dimension,hand,stimulus_type,order_emojis_slider,block,practice.thisRepN,practice.thisTrialN,practice.thisN,practice.thisIndex,trials.thisRepN,trials.thisTrialN,trials.thisN,trials.thisIndex,continuous_annotation,video_duration,valence_value,arousal_value,preference_value,engagement_value,familiarity_value,checkbox_Neutral,checkbox_Asco,checkbox_Felicidad,checkbox_Sorpresa,checkbox_Ira,checkbox_Miedo,checkbox_Tristeza,continuous_annotation_luminance,stim_value_green,stim_value,ID,Sesion,Tarea,Consumo de sustancias psicoactivas en las últimas 24 hs,Horas de sueño la noche anterior,date,exp_name,frame_rate,
99,../amsterdam_dynamic_facial_expression_set/F01-Fear-Face Forward.mp4,valence,right,LV-HA,direct,-1,0,0,0,0,,,,,"[[0.0, 0.026866799918934703]]",0.0,,,,,,,,,,,,,,,,32,A,non_immersive,No,8,2024-05-03_11h43.52.467,Experiment_VR_non_immersive,59.988398225277415,
2,../amsterdam_dynamic_facial_expression_set/F01-Disgust-Face Forward.mp4,arousal,right,HV-LA,direct,0,,,,,0,0,0,1,"[[ 0.          0.0204628 ]
 [ 0.          0.0369106 ]
 [ 0.          0.053553  ]
 [ 0.          0.0705915 ]
 [ 0.          0.0868763 ]
 [ 0.          0.1044457 ]
 [ 0.          0.1202135 ]
 [ 0.          0.1377652 ]
 [ 0.          0.1535423 ]
 [ 0.          0.1710514 ]
 [ 0.          0.1868487 ]
 [ 0.          0.2044103 ]
 [ 0.          0.220219  ]
 [ 0.          0.2377319 ]
 [ 0.          0.2535261 ]
 [ 0.          0.2710662 ]
 [ 0.          0.2868675 ]
 [ 0.          0.3042936 ]
 [ 0.          0.3200783 ]
 [ 0.          0.3377601 ]
 [ 0.          0.3535512 ]
 [ 0.          0.3709003 ]
 [ 0.          0.3868828 ]
 [ 0.          0.4043834 ]
 [ 0.          0.4202508 ]
 [ 0.          0.4377112 ]
 [ 0.          0.4535245 ]
 [ 0.          0.4710637 ]
 [ 0.          0.486872  ]
 [ 0.          0.5043733 ]
 [ 0.          0.520219  ]
 [ 0.          0.5377423 ]
 [ 0.          0.5535429 ]
 [ 0.          0.5708243 ]
 [ 0.          0.586873  ]
 [ 0.          0.6042736 ]
 [ 0.          0.6202182 ]
 [ 0.          0.6376997 ]
 [ 0.          0.653449  ]
 [ 0.          0.6708706 ]
 [ 0.          0.6868827 ]
 [ 0.          0.7044    ]
 [ 0.          0.7202308 ]
 [ 0.          0.737749  ]
 [ 0.          0.7535774 ]
 [ 0.          0.7710382 ]
 [ 0.          0.7868707 ]
 [ 0.          0.8044367 ]
 [ 0.          0.8202277 ]
 [ 0.          0.8377579 ]
 [ 0.          0.8535259 ]
 [ 0.          0.8710048 ]
 [ 0.          0.8868599 ]
 [ 0.          0.9043905 ]
 [ 0.          0.9202394 ]
 [ 0.          0.9377342 ]
 [ 0.          0.9535621 ]
 [ 0.          0.9710236 ]
 [ 0.          0.9868763 ]
 [ 0.          1.0044271 ]
 [ 0.          1.0202119 ]
 [ 0.02208451  1.0375325 ]
 [ 0.11778408  1.0534561 ]
 [ 0.16931461  1.070911  ]
 [ 0.20612213  1.0868387 ]
 [ 0.23556815  1.1043849 ]
 [ 0.25765267  1.1202385 ]
 [ 0.31654471  1.137753  ]
 [ 0.36071373  1.15356   ]
 [ 0.41960577  1.1709274 ]
 [ 0.4637748   1.1868818 ]
 [ 0.50794383  1.2043978 ]
 [ 0.53002834  1.2202338 ]
 [ 0.55947436  1.2377451 ]
 [ 0.58155888  1.2535915 ]
 [ 0.65517392  1.2710451 ]
 [ 0.78768101  1.2867935 ]
 [ 0.86129606  1.3043674 ]
 [ 0.91282659  1.3202556 ]
 [ 0.97171863  1.3377237 ]
 [ 1.          1.35353   ]
 [ 1.          1.3709696 ]
 [ 1.          1.3868844 ]
 [ 1.          1.4044131 ]
 [ 1.          1.4201916 ]
 [ 1.          1.437674  ]
 [ 1.          1.4535285 ]
 [ 1.          1.4708456 ]
 [ 1.          1.486883  ]
 [ 1.          1.5043537 ]
 [ 1.          1.5202286 ]
 [ 1.          1.5377388 ]
 [ 1.          1.5535642 ]
 [ 1.          1.5710012 ]
 [ 1.          1.5867981 ]
 [ 1.          1.604439  ]
 [ 1.          1.6202381 ]
 [ 1.          1.6377315 ]
 [ 1.          1.6535159 ]
 [ 1.          1.6710618 ]
 [ 1.          1.686812  ]
 [ 1.          1.7044122 ]
 [ 1.          1.7202084 ]
 [ 1.          1.7377574 ]
 [ 1.          1.7535257 ]
 [ 0.9275496   1.7709557 ]
 [ 0.84657305  1.7868944 ]
 [ 0.80976552  1.8041887 ]
 [ 0.772958    1.8200998 ]
 [ 0.74351198  1.8377328 ]
 [ 0.71406596  1.853595  ]
 [ 0.66989693  1.8710422 ]
 [ 0.59628189  1.8868007 ]
 [ 0.53738985  1.9044036 ]
 [ 0.44905179  1.9202463 ]
 [ 0.39015975  1.9378071 ]
 [ 0.33862922  1.9535409 ]
 [ 0.27973718  1.9709756 ]
 [ 0.24292966  1.9868847 ]
 [ 0.18403762  2.004397  ]
 [ 0.11778408  2.0202485 ]
 [ 0.06625354  2.0377754 ]
 [ 0.0073615   2.0535989 ]
 [-0.04416903  2.0710708 ]
 [-0.11778408  2.0868953 ]
 [-0.1619531   2.1043368 ]
 [-0.20612213  2.1202584 ]
 [-0.25029116  2.137761  ]
 [-0.28709869  2.1535433 ]
 [-0.32390621  2.1709433 ]
 [-0.33862922  2.1868074 ]
 [-0.36071373  2.2042249 ]
 [-0.38279825  2.2201083 ]
 [-0.40488276  2.2377116 ]
 [-0.44169029  2.2536087 ]
 [-0.50794383  2.2709865 ]
 [-0.58155888  2.2869022 ]
 [-0.60364339  2.3043468 ]
 [-0.62572791  2.3202485 ]
 [-0.64781242  2.3377696 ]
 [-0.71406596  2.3535274 ]
 [-0.772958    2.3709514 ]
 [-0.83921154  2.386904  ]
 [-0.86129606  2.4043423 ]
 [-0.86865756  2.4202613 ]
 [-0.89074208  2.4377457 ]
 [-0.89074208  2.4536342 ]
 [-0.9201881   2.4710624 ]
 [-0.94963412  2.4868114 ]
 [-0.95699562  2.5044027 ]
 [-0.96435713  2.5202659 ]
 [-0.96435713  2.5377991 ]
 [-0.96435713  2.5535516 ]
 [-0.98644164  2.5709535 ]
 [-1.          2.5869074 ]
 [-1.          2.6042755 ]
 [-1.          2.6202499 ]
 [-1.          2.6377642 ]
 [-1.          2.6535694 ]
 [-1.          2.6710418 ]
 [-1.          2.6869018 ]
 [-1.          2.7044205 ]
 [-1.          2.7202502 ]
 [-1.          2.7377984 ]
 [-1.          2.7535991 ]
 [-1.          2.7710773 ]
 [-1.          2.7868128 ]
 [-1.          2.8044403 ]
 [-1.          2.820252  ]
 [-1.          2.8377707 ]
 [-1.          2.8536054 ]
 [-1.          2.8709705 ]
 [-0.97171863  2.8869087 ]
 [-0.9275496   2.9045849 ]
 [-0.87601907  2.9201238 ]
 [-0.83921154  2.9377145 ]
 [-0.79504252  2.9535609 ]
 [-0.7655965   2.9709559 ]
 [-0.74351198  2.9869122 ]
 [-0.70670446  3.0043197 ]
 [-0.66989693  3.0202659 ]
 [-0.62572791  3.0377695 ]
 [-0.59628189  3.053598  ]
 [-0.55947436  3.0710937 ]
 [-0.50794383  3.0868402 ]
 [-0.47113631  3.1044394 ]
 [-0.44169029  3.1201706 ]
 [-0.39752126  3.1377719 ]
 [-0.36807524  3.1535579 ]
 [-0.32390621  3.1709824 ]
 [-0.28709869  3.1869117 ]
 [-0.25029116  3.204422  ]
 [-0.20612213  3.2202318 ]
 [-0.16931461  3.2377558 ]
 [-0.13250709  3.2535684 ]
 [-0.10306107  3.2710554 ]
 [-0.09569956  3.2869506 ]
 [-0.08833806  3.304351  ]
 [-0.07361505  3.320093  ]
 [-0.05889204  3.3378917 ]
 [-0.05889204  3.3536395 ]
 [-0.05889204  3.371151  ]
 [-0.05889204  3.3868229 ]
 [-0.05889204  3.4044974 ]
 [-0.05889204  3.4202625 ]
 [-0.05153053  3.4378047 ]
 [-0.05153053  3.4536729 ]
 [-0.05153053  3.4711537 ]
 [-0.05153053  3.4868985 ]
 [-0.05153053  3.504475  ]
 [-0.05153053  3.5202428 ]
 [-0.05153053  3.537851  ]
 [-0.05153053  3.5536023 ]
 [-0.05153053  3.5710745 ]
 [-0.05153053  3.5869084 ]
 [-0.05153053  3.6044122 ]
 [-0.05153053  3.6201681 ]
 [-0.05153053  3.637833  ]
 [-0.05153053  3.6536025 ]
 [-0.05153053  3.6711431 ]
 [-0.05153053  3.6868112 ]
 [-0.05153053  3.7043946 ]
 [-0.05153053  3.7202674 ]
 [-0.05153053  3.7377485 ]
 [-0.05153053  3.7536006 ]
 [-0.05153053  3.771068  ]
 [-0.05153053  3.7869032 ]
 [-0.05153053  3.8044457 ]
 [-0.05153053  3.8202661 ]
 [-0.05153053  3.8377618 ]
 [-0.02944602  3.8536103 ]
 [-0.02944602  3.8710685 ]
 [-0.02944602  3.8869308 ]
 [-0.02944602  3.9044442 ]
 [-0.02944602  3.9202378 ]
 [-0.02944602  3.9378338 ]
 [-0.02944602  3.9536067 ]
 [-0.02944602  3.9709137 ]
 [-0.02944602  3.9868359 ]
 [-0.02944602  4.004319  ]
 [-0.02944602  4.0201254 ]
 [-0.02944602  4.037754  ]
 [-0.02944602  4.0536216 ]
 [-0.02944602  4.0710995 ]
 [-0.02944602  4.0869129 ]
 [-0.02944602  4.1043978 ]
 [-0.02944602  4.120269  ]
 [-0.02944602  4.1379185 ]
 [-0.02944602  4.1536961 ]
 [-0.02944602  4.1711939 ]
 [-0.02944602  4.1870364 ]
 [-0.02944602  4.2045815 ]
 [-0.02944602  4.2202834 ]
 [-0.02944602  4.2379027 ]
 [-0.02944602  4.2536489 ]
 [-0.02944602  4.2710137 ]
 [-0.02944602  4.2868252 ]
 [-0.02944602  4.3044099 ]
 [-0.02944602  4.320264  ]
 [-0.02944602  4.3378066 ]
 [-0.02944602  4.3535713 ]
 [ 0.          4.3710259 ]
 [ 0.05889204  4.3869108 ]
 [ 0.05889204  4.4042635 ]
 [ 0.05889204  4.4201258 ]
 [ 0.05889204  4.4377281 ]
 [ 0.10306107  4.4536531 ]
 [ 0.1545916   4.4711024 ]
 [ 0.23556815  4.4869367 ]
 [ 0.25765267  4.5044204 ]
 [ 0.27237568  4.5202727 ]
 [ 0.27973718  4.537761  ]
 [ 0.27973718  4.5535602 ]
 [ 0.29446019  4.5710355 ]
 [ 0.3018217   4.5868481 ]
 [ 0.32390621  4.6044441 ]
 [ 0.35335223  4.6202711 ]
 [ 0.39752126  4.6377628 ]
 [ 0.42696728  4.6536352 ]
 [ 0.4637748   4.67108   ]
 [ 0.50794383  4.6869336 ]
 [ 0.52266684  4.7044387 ]
 [ 0.53738985  4.7202549 ]
 [ 0.55947436  4.7377834 ]
 [ 0.58892038  4.7535821 ]
 [ 0.6110049   4.7709811 ]
 [ 0.63308941  4.7869376 ]
 [ 0.64781242  4.8043859 ]
 [ 0.65517392  4.8201146 ]
 [ 0.66989693  4.8377863 ]
 [ 0.69198145  4.8535939 ]
 [ 0.72142747  4.8712624 ]
 [ 0.75087349  4.8870116 ]
 [ 0.772958    4.9045979 ]
 [ 0.772958    4.9204005 ]
 [ 0.78031951  4.9379505 ]
 [ 0.78768101  4.9535782 ]
 [ 0.80240402  4.9710545 ]
 [ 0.83921154  4.9869506 ]
 [ 0.88338057  5.0044503 ]
 [ 0.9201881   5.0202727 ]
 [ 0.94963412  5.0377682 ]
 [ 0.94963412  5.053629  ]
 [ 0.94963412  5.0710898 ]
 [ 0.94963412  5.086978  ]
 [ 0.96435713  5.1044437 ]
 [ 0.97908013  5.1202719 ]
 [ 0.99380314  5.1377726 ]
 [ 1.          5.1535967 ]
 [ 1.          5.1709176 ]
 [ 1.          5.1869398 ]
 [ 1.          5.204407  ]
 [ 1.          5.2202592 ]
 [ 1.          5.2377892 ]
 [ 1.          5.2536297 ]
 [ 1.          5.2710705 ]
 [ 1.          5.2869158 ]
 [ 1.          5.3043699 ]
 [ 1.          5.320262  ]
 [ 1.          5.3377448 ]
 [ 1.          5.3535968 ]
 [ 1.          5.3709453 ]
 [ 1.          5.3869563 ]
 [ 0.94963412  5.4044553 ]
 [ 0.87601907  5.420281  ]
 [ 0.80240402  5.4377765 ]
 [ 0.72142747  5.453636  ]
 [ 0.62572791  5.4710659 ]
 [ 0.47849781  5.4869401 ]
 [ 0.33126771  5.5044638 ]
 [ 0.18403762  5.5202884 ]
 [ 0.03680752  5.5377115 ]
 [-0.08097655  5.5534984 ]
 [-0.1545916   5.5708967 ]
 [-0.18403762  5.5867934 ]
 [-0.19876063  5.6044275 ]
 [-0.22084514  5.6203011 ]
 [-0.27237568  5.6377751 ]
 [-0.33126771  5.6536525 ]
 [-0.39752126  5.6709563 ]
 [-0.47113631  5.6869915 ]
 [-0.52266684  5.7044067 ]
 [-0.56683587  5.7203051 ]
 [-0.6110049   5.7377397 ]
 [-0.66253543  5.7535961 ]
 [-0.70670446  5.7709629 ]
 [-0.7655965   5.7869528 ]
 [-0.80240402  5.804328  ]
 [-0.84657305  5.8202853 ]
 [-0.88338057  5.8377857 ]
 [-0.91282659  5.8536414 ]
 [-0.9275496   5.87108   ]
 [-0.95699562  5.8869605 ]
 [-0.97908013  5.9045013 ]
 [-0.97908013  5.9201414 ]
 [-0.99380314  5.9378031 ]
 [-1.          5.9536075 ]
 [-1.          5.9709735 ]
 [-1.          5.9869537 ]
 [-1.          6.0044606 ]
 [-1.          6.0202506 ]
 [-1.          6.0381879 ]
 [-1.          6.0541216 ]]",6.01,None,None,None,None,None,False,False,False,False,False,False,False,"[[ 0.00000000e+00  6.80005178e-06]
 [ 0.00000000e+00  9.36840009e-03]
 [ 0.00000000e+00  2.60312001e-02]
 [ 0.00000000e+00  4.26872000e-02]
 [ 0.00000000e+00  5.93554000e-02]
 [ 0.00000000e+00  7.60265001e-02]
 [ 0.00000000e+00  9.26870001e-02]
 [ 0.00000000e+00  1.09359100e-01]
 [ 0.00000000e+00  1.26018000e-01]
 [ 0.00000000e+00  1.42695400e-01]
 [ 0.00000000e+00  1.59346300e-01]
 [ 0.00000000e+00  1.76027500e-01]
 [ 0.00000000e+00  1.92685000e-01]
 [ 0.00000000e+00  2.09354300e-01]
 [ 0.00000000e+00  2.26029100e-01]
 [ 0.00000000e+00  2.42691200e-01]
 [ 0.00000000e+00  2.59372700e-01]
 [ 0.00000000e+00  2.75548500e-01]
 [ 0.00000000e+00  2.92246200e-01]
 [ 0.00000000e+00  3.08896600e-01]
 [ 0.00000000e+00  3.25562400e-01]
 [ 0.00000000e+00  3.42224100e-01]
 [ 0.00000000e+00  3.58894800e-01]
 [ 0.00000000e+00  3.75528900e-01]
 [ 0.00000000e+00  3.92055500e-01]
 [ 0.00000000e+00  4.08891800e-01]
 [ 0.00000000e+00  4.25426500e-01]
 [ 0.00000000e+00  4.42198000e-01]
 [ 0.00000000e+00  4.58912100e-01]
 [ 0.00000000e+00  4.75530000e-01]
 [ 0.00000000e+00  4.92233500e-01]
 [ 0.00000000e+00  5.08896500e-01]
 [ 0.00000000e+00  5.25578600e-01]
 [ 0.00000000e+00  5.42240200e-01]
 [ 0.00000000e+00  5.58902100e-01]
 [ 0.00000000e+00  5.75545900e-01]
 [ 0.00000000e+00  5.92237100e-01]
 [ 0.00000000e+00  6.08896500e-01]
 [ 0.00000000e+00  6.25580600e-01]
 [ 0.00000000e+00  6.42172400e-01]
 [ 0.00000000e+00  6.58871900e-01]
 [ 0.00000000e+00  6.75440000e-01]
 [ 0.00000000e+00  6.92253400e-01]
 [ 0.00000000e+00  7.08902500e-01]
 [ 0.00000000e+00  7.25578800e-01]
 [ 0.00000000e+00  7.42230200e-01]
 [ 0.00000000e+00  7.58911800e-01]
 [ 0.00000000e+00  7.75547400e-01]
 [ 0.00000000e+00  7.92220500e-01]
 [ 0.00000000e+00  8.08899700e-01]
 [ 0.00000000e+00  8.25579800e-01]
 [ 0.00000000e+00  8.42222400e-01]
 [ 0.00000000e+00  8.58914400e-01]
 [ 0.00000000e+00  8.75537400e-01]
 [ 0.00000000e+00  8.92235400e-01]
 [ 0.00000000e+00  9.08901800e-01]
 [ 0.00000000e+00  9.25588800e-01]
 [ 0.00000000e+00  9.42233400e-01]
 [ 0.00000000e+00  9.58850600e-01]
 [ 0.00000000e+00  9.75467400e-01]
 [ 0.00000000e+00  9.92223100e-01]
 [ 0.00000000e+00  1.00890620e+00]
 [ 0.00000000e+00  1.02559250e+00]
 [ 0.00000000e+00  1.04224070e+00]
 [ 0.00000000e+00  1.05936390e+00]
 [ 0.00000000e+00  1.07603340e+00]
 [ 0.00000000e+00  1.09269690e+00]
 [ 0.00000000e+00  1.10937470e+00]
 [ 0.00000000e+00  1.12603400e+00]
 [ 0.00000000e+00  1.14270570e+00]
 [ 0.00000000e+00  1.15937500e+00]
 [ 0.00000000e+00  1.17605400e+00]
 [ 0.00000000e+00  1.19270730e+00]
 [ 0.00000000e+00  1.20937550e+00]
 [ 0.00000000e+00  1.22603610e+00]
 [ 0.00000000e+00  1.24268910e+00]
 [ 0.00000000e+00  1.25936740e+00]
 [ 0.00000000e+00  1.27599930e+00]
 [ 0.00000000e+00  1.29270650e+00]
 [ 0.00000000e+00  1.30937180e+00]
 [ 0.00000000e+00  1.32604150e+00]
 [ 0.00000000e+00  1.34271030e+00]
 [ 0.00000000e+00  1.35937120e+00]
 [ 0.00000000e+00  1.37604240e+00]
 [ 2.20845143e-02  1.39270380e+00]
 [ 1.03061067e-01  1.40939390e+00]
 [ 2.65014172e-01  1.42604840e+00]
 [ 3.82798248e-01  1.44270000e+00]
 [ 4.41690286e-01  1.45936800e+00]
 [ 4.56413296e-01  1.47604530e+00]
 [ 4.56413296e-01  1.49270960e+00]
 [ 4.56413296e-01  1.50939040e+00]
 [ 4.56413296e-01  1.52603750e+00]
 [ 4.56413296e-01  1.54270640e+00]
 [ 4.63774801e-01  1.55938140e+00]
 [ 4.63774801e-01  1.57604370e+00]
 [ 4.63774801e-01  1.59270900e+00]
 [ 4.78497810e-01  1.60938110e+00]
 [ 4.93220820e-01  1.62604660e+00]
 [ 5.30028344e-01  1.64226460e+00]
 [ 5.88920382e-01  1.65893300e+00]
 [ 6.69896934e-01  1.67555780e+00]
 [ 7.43511982e-01  1.69219520e+00]
 [ 7.95042515e-01  1.70891620e+00]
 [ 8.24488534e-01  1.72559130e+00]
 [ 8.24488534e-01  1.74229610e+00]
 [ 8.24488534e-01  1.75891390e+00]
 [ 8.24488534e-01  1.77555190e+00]
 [ 8.46573049e-01  1.79275860e+00]
 [ 8.76019068e-01  1.80942770e+00]
 [ 9.05465087e-01  1.82607260e+00]
 [ 9.20188096e-01  1.84273410e+00]
 [ 9.27549601e-01  1.85940030e+00]
 [ 9.27549601e-01  1.87605340e+00]
 [ 9.27549601e-01  1.89271610e+00]
 [ 9.27549601e-01  1.90938600e+00]
 [ 9.27549601e-01  1.92606970e+00]
 [ 9.56995620e-01  1.94271900e+00]
 [ 1.00000000e+00  1.95940460e+00]
 [ 1.00000000e+00  1.97604980e+00]
 [ 1.00000000e+00  1.99271300e+00]
 [ 1.00000000e+00  2.00938560e+00]
 [ 1.00000000e+00  2.02604690e+00]
 [ 1.00000000e+00  2.04271090e+00]
 [ 1.00000000e+00  2.05941210e+00]
 [ 1.00000000e+00  2.07604510e+00]
 [ 1.00000000e+00  2.09270970e+00]
 [ 1.00000000e+00  2.10939610e+00]
 [ 1.00000000e+00  2.12603340e+00]
 [ 1.00000000e+00  2.14270650e+00]
 [ 9.27549601e-01  2.15936580e+00]
 [ 8.09765525e-01  2.17606060e+00]
 [ 6.77258439e-01  2.19272190e+00]
 [ 5.44751353e-01  2.20938690e+00]
 [ 4.34328782e-01  2.22605140e+00]
 [ 3.31267715e-01  2.24272470e+00]
 [ 2.50291162e-01  2.25939430e+00]
 [ 1.69314610e-01  2.27605360e+00]
 [ 1.03061067e-01  2.29271780e+00]
 [ 7.36150477e-03  2.30939570e+00]
 [-6.62535429e-02  2.32605850e+00]
 [-1.32507086e-01  2.34271840e+00]
 [-2.20845143e-01  2.35939720e+00]
 [-3.09183200e-01  2.37605390e+00]
 [-3.60713734e-01  2.39272390e+00]
 [-4.19605772e-01  2.40939430e+00]
 [-4.71136305e-01  2.42605940e+00]
 [-5.22666839e-01  2.44272500e+00]
 [-5.96281887e-01  2.45938580e+00]
 [-6.69896934e-01  2.47606190e+00]
 [-7.58234991e-01  2.49272380e+00]
 [-8.53934554e-01  2.50940430e+00]
 [-9.20188096e-01  2.52605720e+00]
 [-9.86441639e-01  2.54272550e+00]
 [-1.00000000e+00  2.55940080e+00]
 [-1.00000000e+00  2.57605340e+00]
 [-1.00000000e+00  2.59271490e+00]
 [-1.00000000e+00  2.60939380e+00]
 [-1.00000000e+00  2.62605540e+00]
 [-1.00000000e+00  2.64272660e+00]
 [-1.00000000e+00  2.65940600e+00]
 [-1.00000000e+00  2.67605650e+00]
 [-1.00000000e+00  2.69272780e+00]
 [-1.00000000e+00  2.70939420e+00]
 [-1.00000000e+00  2.72605440e+00]
 [-1.00000000e+00  2.74272980e+00]
 [-1.00000000e+00  2.75938880e+00]
 [-1.00000000e+00  2.77605610e+00]
 [-1.00000000e+00  2.79272020e+00]
 [-1.00000000e+00  2.80942990e+00]
 [-1.00000000e+00  2.82605980e+00]
 [-1.00000000e+00  2.84272460e+00]
 [-1.00000000e+00  2.85937920e+00]
 [-1.00000000e+00  2.87546220e+00]
 [-1.00000000e+00  2.89228530e+00]
 [-1.00000000e+00  2.90941330e+00]
 [-1.00000000e+00  2.92605820e+00]
 [-1.00000000e+00  2.94271820e+00]
 [-9.86441639e-01  2.95940470e+00]
 [-9.64357125e-01  2.97608110e+00]
 [-9.34911106e-01  2.99272780e+00]
 [-8.90742077e-01  3.00940130e+00]
 [-8.61296058e-01  3.02606160e+00]
 [-8.39211544e-01  3.04274090e+00]
 [-8.09765525e-01  3.05940230e+00]
 [-7.87681011e-01  3.07606550e+00]
 [-7.65596496e-01  3.09273390e+00]
 [-7.43511982e-01  3.10940370e+00]
 [-7.36150477e-01  3.12606350e+00]
 [-7.21427468e-01  3.14273490e+00]
 [-7.14065963e-01  3.15940660e+00]
 [-6.91981449e-01  3.17607200e+00]
 [-6.84619944e-01  3.19273290e+00]
 [-6.62535429e-01  3.20941610e+00]
 [-6.47812420e-01  3.22606850e+00]
 [-6.25727906e-01  3.24274060e+00]
 [-5.81558877e-01  3.25939850e+00]
 [-5.44751353e-01  3.27607530e+00]
 [-5.00582324e-01  3.29273640e+00]
 [-4.49051791e-01  3.30940120e+00]
 [-4.34328782e-01  3.32607240e+00]
 [-4.34328782e-01  3.34273730e+00]
 [-4.34328782e-01  3.35939880e+00]
 [-4.34328782e-01  3.37606950e+00]
 [-4.04882762e-01  3.39273660e+00]
 [-3.68075239e-01  3.40940740e+00]
 [-3.45990724e-01  3.42607820e+00]
 [-3.23906210e-01  3.44273880e+00]
 [-3.09183200e-01  3.45940830e+00]
 [-2.79737181e-01  3.47607110e+00]
 [-2.79737181e-01  3.49274090e+00]
 [-2.65014172e-01  3.50944600e+00]
 [-2.50291162e-01  3.52607040e+00]
 [-2.28206648e-01  3.54275830e+00]
 [-1.76676115e-01  3.55941260e+00]
 [-1.17784076e-01  3.57608100e+00]
 [-8.09765525e-02  3.59274490e+00]
 [-5.88920382e-02  3.60943290e+00]
 [-4.41690286e-02  3.62609110e+00]
 [-2.94460191e-02  3.64274870e+00]
 [-2.94460191e-02  3.65941450e+00]
 [-2.94460191e-02  3.67605880e+00]
 [-2.94460191e-02  3.69274820e+00]
 [-2.94460191e-02  3.70942570e+00]
 [-2.94460191e-02  3.72565000e+00]
 [-2.94460191e-02  3.74230250e+00]
 [-2.94460191e-02  3.75897410e+00]
 [-2.94460191e-02  3.77559310e+00]
 [-2.94460191e-02  3.79224910e+00]
 [-2.94460191e-02  3.80895260e+00]
 [-2.94460191e-02  3.82557740e+00]
 [-2.94460191e-02  3.84229100e+00]
 [-2.94460191e-02  3.85895520e+00]
 [-2.94460191e-02  3.87609800e+00]
 [-2.94460191e-02  3.89275410e+00]
 [-2.94460191e-02  3.90942250e+00]
 [-2.94460191e-02  3.92607950e+00]
 [-2.94460191e-02  3.94275920e+00]
 [-2.94460191e-02  3.95941510e+00]
 [-2.94460191e-02  3.97608470e+00]
 [-2.94460191e-02  3.99276550e+00]
 [-2.94460191e-02  4.00943780e+00]
 [-2.94460191e-02  4.02608080e+00]
 [-2.94460191e-02  4.04276590e+00]
 [-2.94460191e-02  4.05943780e+00]
 [-2.94460191e-02  4.07608090e+00]
 [-2.94460191e-02  4.09276140e+00]
 [-2.94460191e-02  4.10942810e+00]
 [-2.94460191e-02  4.12607730e+00]
 [-2.94460191e-02  4.14226360e+00]
 [-2.94460191e-02  4.15889780e+00]
 [-2.94460191e-02  4.17554280e+00]
 [-2.94460191e-02  4.19218470e+00]
 [-2.94460191e-02  4.20892320e+00]
 [-2.94460191e-02  4.22560870e+00]
 [-2.94460191e-02  4.24229770e+00]
 [-2.94460191e-02  4.25897390e+00]
 [-2.94460191e-02  4.27559590e+00]
 [-2.94460191e-02  4.29229310e+00]
 [-2.94460191e-02  4.30896230e+00]
 [-2.94460191e-02  4.32566310e+00]
 [-2.94460191e-02  4.34234020e+00]
 [-2.94460191e-02  4.35896920e+00]
 [-2.94460191e-02  4.37559340e+00]
 [-2.94460191e-02  4.39215020e+00]
 [-2.94460191e-02  4.40942030e+00]
 [-2.94460191e-02  4.42610280e+00]
 [-2.94460191e-02  4.44276110e+00]
 [-2.94460191e-02  4.45942070e+00]
 [-2.94460191e-02  4.47608880e+00]
 [-2.94460191e-02  4.49277440e+00]
 [-2.94460191e-02  4.50941160e+00]
 [-2.94460191e-02  4.52610120e+00]
 [-2.94460191e-02  4.54274170e+00]
 [-2.94460191e-02  4.55948130e+00]
 [-2.94460191e-02  4.57615230e+00]
 [-2.94460191e-02  4.59278940e+00]
 [-2.94460191e-02  4.60946420e+00]
 [-2.94460191e-02  4.62611340e+00]
 [-2.94460191e-02  4.64278120e+00]
 [-2.94460191e-02  4.65942700e+00]
 [-2.94460191e-02  4.67612100e+00]
 [-2.94460191e-02  4.69275390e+00]
 [-2.94460191e-02  4.70942470e+00]
 [-2.94460191e-02  4.72609570e+00]
 [-2.94460191e-02  4.74275340e+00]
 [-2.94460191e-02  4.75942180e+00]
 [-2.94460191e-02  4.77609360e+00]
 [-2.94460191e-02  4.79276310e+00]
 [-2.94460191e-02  4.80941880e+00]
 [-2.94460191e-02  4.82608910e+00]
 [-2.94460191e-02  4.84275650e+00]
 [-2.94460191e-02  4.85942060e+00]
 [-2.94460191e-02  4.87609520e+00]
 [-2.94460191e-02  4.89275840e+00]
 [-2.94460191e-02  4.90943540e+00]
 [-2.94460191e-02  4.92608540e+00]
 [-2.94460191e-02  4.94275900e+00]
 [-2.94460191e-02  4.95942710e+00]
 [-2.94460191e-02  4.97609800e+00]
 [-2.94460191e-02  4.99276330e+00]
 [-2.94460191e-02  5.00943430e+00]
 [-2.94460191e-02  5.02609460e+00]
 [-2.94460191e-02  5.04276250e+00]
 [-2.94460191e-02  5.05943490e+00]
 [-2.94460191e-02  5.07610100e+00]
 [-2.94460191e-02  5.09276680e+00]
 [-2.94460191e-02  5.10943300e+00]
 [-2.94460191e-02  5.12610180e+00]
 [-2.94460191e-02  5.14276110e+00]
 [-2.94460191e-02  5.15943930e+00]
 [-2.94460191e-02  5.17560610e+00]
 [-2.94460191e-02  5.19216980e+00]
 [-2.94460191e-02  5.20883370e+00]
 [-2.94460191e-02  5.22559200e+00]
 [-2.94460191e-02  5.24230130e+00]
 [-2.94460191e-02  5.25896900e+00]
 [-2.94460191e-02  5.27560690e+00]
 [-2.94460191e-02  5.29230390e+00]
 [-2.94460191e-02  5.30897410e+00]
 [-2.94460191e-02  5.32565460e+00]
 [-2.94460191e-02  5.34230070e+00]
 [-2.94460191e-02  5.35896770e+00]
 [-2.94460191e-02  5.37560430e+00]
 [-2.94460191e-02  5.39231990e+00]
 [-2.94460191e-02  5.40895320e+00]
 [-2.94460191e-02  5.42609870e+00]
 [-2.94460191e-02  5.44276730e+00]
 [-2.94460191e-02  5.45943500e+00]
 [-2.94460191e-02  5.47610130e+00]
 [-2.94460191e-02  5.49278860e+00]
 [-2.94460191e-02  5.50943300e+00]
 [-2.94460191e-02  5.52611370e+00]
 [-2.94460191e-02  5.54277800e+00]
 [-2.94460191e-02  5.55944000e+00]
 [-2.94460191e-02  5.57611000e+00]
 [-2.94460191e-02  5.59277140e+00]
 [-2.94460191e-02  5.60942670e+00]
 [-2.94460191e-02  5.62610600e+00]
 [-2.94460191e-02  5.64277150e+00]
 [-2.94460191e-02  5.65944020e+00]
 [-2.94460191e-02  5.67610250e+00]
 [-2.94460191e-02  5.69277500e+00]
 [-2.94460191e-02  5.70943680e+00]
 [-2.94460191e-02  5.72611530e+00]
 [-2.94460191e-02  5.74277300e+00]
 [-2.94460191e-02  5.75944490e+00]
 [-2.94460191e-02  5.77610450e+00]
 [-2.94460191e-02  5.79277270e+00]
 [-2.94460191e-02  5.80943740e+00]
 [-2.94460191e-02  5.82610610e+00]
 [-2.94460191e-02  5.84277240e+00]
 [-2.94460191e-02  5.85943950e+00]
 [-2.94460191e-02  5.87610310e+00]
 [-2.94460191e-02  5.89277480e+00]
 [-2.94460191e-02  5.90946870e+00]
 [-2.94460191e-02  5.92611040e+00]
 [-2.94460191e-02  5.94279040e+00]
 [-2.94460191e-02  5.95943760e+00]
 [-2.94460191e-02  5.97562210e+00]
 [-2.94460191e-02  5.99231440e+00]
 [-2.94460191e-02  6.00897990e+00]
 [-2.94460191e-02  6.02564210e+00]
 [-2.94460191e-02  6.04231720e+00]]","[[1.40000000e+02 6.80005178e-06]
 [1.40000000e+02 9.36840009e-03]
 [1.40000000e+02 2.60312001e-02]
 [1.40000000e+02 4.26872000e-02]
 [1.40000000e+02 5.93554000e-02]
 [1.40000000e+02 7.60265001e-02]
 [1.40000000e+02 9.26870001e-02]
 [1.40000000e+02 1.09359100e-01]
 [1.40000000e+02 1.26018000e-01]
 [1.40000000e+02 1.42695400e-01]
 [1.40000000e+02 1.59346300e-01]
 [1.40000000e+02 1.76027500e-01]
 [1.40000000e+02 1.92685000e-01]
 [1.40000000e+02 2.09354300e-01]
 [1.40000000e+02 2.26029100e-01]
 [1.40000000e+02 2.42691200e-01]
 [1.40000000e+02 2.59372700e-01]
 [1.40000000e+02 2.75548500e-01]
 [1.40000000e+02 2.92246200e-01]
 [1.40000000e+02 3.08896600e-01]
 [1.40000000e+02 3.25562400e-01]
 [1.40000000e+02 3.42224100e-01]
 [1.40000000e+02 3.58894800e-01]
 [1.40000000e+02 3.75528900e-01]
 [1.40000000e+02 3.92055500e-01]
 [1.40000000e+02 4.08891800e-01]
 [1.40000000e+02 4.25426500e-01]
 [1.40000000e+02 4.42198000e-01]
 [1.40000000e+02 4.58912100e-01]
 [1.40000000e+02 4.75530000e-01]
 [1.40000000e+02 4.92233500e-01]
 [1.40000000e+02 5.08896500e-01]
 [1.40000000e+02 5.25578600e-01]
 [1.40000000e+02 5.42240200e-01]
 [1.40000000e+02 5.58902100e-01]
 [1.40000000e+02 5.75545900e-01]
 [1.40000000e+02 5.92237100e-01]
 [1.40000000e+02 6.08896500e-01]
 [1.40000000e+02 6.25580600e-01]
 [1.40000000e+02 6.42172400e-01]
 [1.40000000e+02 6.58871900e-01]
 [1.40000000e+02 6.75440000e-01]
 [1.40000000e+02 6.92253400e-01]
 [1.40000000e+02 7.08902500e-01]
 [1.40000000e+02 7.25578800e-01]
 [1.40000000e+02 7.42230200e-01]
 [1.40000000e+02 7.58911800e-01]
 [1.40000000e+02 7.75547400e-01]
 [1.40000000e+02 7.92220500e-01]
 [1.40000000e+02 8.08899700e-01]
 [1.40000000e+02 8.25579800e-01]
 [1.40000000e+02 8.42222400e-01]
 [1.40000000e+02 8.58914400e-01]
 [1.40000000e+02 8.75537400e-01]
 [1.40000000e+02 8.92235400e-01]
 [1.40000000e+02 9.08901800e-01]
 [1.40000000e+02 9.25588800e-01]
 [1.40000000e+02 9.42233400e-01]
 [1.40000000e+02 9.58850600e-01]
 [1.40000000e+02 9.75467400e-01]
 [1.40000000e+02 9.92223100e-01]
 [1.40000000e+02 1.00890620e+00]
 [1.40000000e+02 1.02559250e+00]
 [1.42539719e+02 1.04224070e+00]
 [1.53545169e+02 1.05936390e+00]
 [1.59471180e+02 1.07603340e+00]
 [1.63704045e+02 1.09269690e+00]
 [1.67090338e+02 1.10937470e+00]
 [1.69630057e+02 1.12603400e+00]
 [1.76402641e+02 1.14270570e+00]
 [1.81482079e+02 1.15937500e+00]
 [1.88254664e+02 1.17605400e+00]
 [1.93334102e+02 1.19270730e+00]
 [1.98413540e+02 1.20937550e+00]
 [2.00953260e+02 1.22603610e+00]
 [2.04339552e+02 1.24268910e+00]
 [2.06879271e+02 1.25936740e+00]
 [2.15345001e+02 1.27599930e+00]
 [2.30583316e+02 1.29270650e+00]
 [2.39049047e+02 1.30937180e+00]
 [2.44975058e+02 1.32604150e+00]
 [2.51747642e+02 1.34271030e+00]
 [2.55000000e+02 1.35937120e+00]
 [2.55000000e+02 1.37604240e+00]
 [2.55000000e+02 1.39270380e+00]
 [2.55000000e+02 1.40939390e+00]
 [2.55000000e+02 1.42604840e+00]
 [2.55000000e+02 1.44270000e+00]
 [2.55000000e+02 1.45936800e+00]
 [2.55000000e+02 1.47604530e+00]
 [2.55000000e+02 1.49270960e+00]
 [2.55000000e+02 1.50939040e+00]
 [2.55000000e+02 1.52603750e+00]
 [2.55000000e+02 1.54270640e+00]
 [2.55000000e+02 1.55938140e+00]
 [2.55000000e+02 1.57604370e+00]
 [2.55000000e+02 1.59270900e+00]
 [2.55000000e+02 1.60938110e+00]
 [2.55000000e+02 1.62604660e+00]
 [2.55000000e+02 1.64226460e+00]
 [2.55000000e+02 1.65893300e+00]
 [2.55000000e+02 1.67555780e+00]
 [2.55000000e+02 1.69219520e+00]
 [2.55000000e+02 1.70891620e+00]
 [2.55000000e+02 1.72559130e+00]
 [2.55000000e+02 1.74229610e+00]
 [2.55000000e+02 1.75891390e+00]
 [2.46668204e+02 1.77555190e+00]
 [2.37355901e+02 1.79275860e+00]
 [2.33123035e+02 1.80942770e+00]
 [2.28890170e+02 1.82607260e+00]
 [2.25503878e+02 1.84273410e+00]
 [2.22117586e+02 1.85940030e+00]
 [2.17038147e+02 1.87605340e+00]
 [2.08572417e+02 1.89271610e+00]
 [2.01799833e+02 1.90938600e+00]
 [1.91640956e+02 1.92606970e+00]
 [1.84868372e+02 1.94271900e+00]
 [1.78942360e+02 1.95940460e+00]
 [1.72169776e+02 1.97604980e+00]
 [1.67936911e+02 1.99271300e+00]
 [1.61164326e+02 2.00938560e+00]
 [1.53545169e+02 2.02604690e+00]
 [1.47619157e+02 2.04271090e+00]
 [1.40846573e+02 2.05941210e+00]
 [1.34920562e+02 2.07604510e+00]
 [1.26454831e+02 2.09270970e+00]
 [1.21375393e+02 2.10939610e+00]
 [1.16295955e+02 2.12603340e+00]
 [1.11216516e+02 2.14270650e+00]
 [1.06983651e+02 2.15936580e+00]
 [1.02750786e+02 2.17606060e+00]
 [1.01057640e+02 2.19272190e+00]
 [9.85179206e+01 2.20938690e+00]
 [9.59782015e+01 2.22605140e+00]
 [9.34384823e+01 2.24272470e+00]
 [8.92056171e+01 2.25939430e+00]
 [8.15864596e+01 2.27605360e+00]
 [7.31207291e+01 2.29271780e+00]
 [7.05810100e+01 2.30939570e+00]
 [6.80412909e+01 2.32605850e+00]
 [6.55015717e+01 2.34271840e+00]
 [5.78824143e+01 2.35939720e+00]
 [5.11098299e+01 2.37605390e+00]
 [4.34906724e+01 2.39272390e+00]
 [4.09509533e+01 2.40939430e+00]
 [4.01043802e+01 2.42605940e+00]
 [3.75646611e+01 2.44272500e+00]
 [3.75646611e+01 2.45938580e+00]
 [3.41783689e+01 2.47606190e+00]
 [3.07920767e+01 2.49272380e+00]
 [2.99455037e+01 2.50940430e+00]
 [2.90989306e+01 2.52605720e+00]
 [2.90989306e+01 2.54272550e+00]
 [2.90989306e+01 2.55940080e+00]
 [2.65592115e+01 2.57605340e+00]
 [2.50000000e+01 2.59271490e+00]
 [2.50000000e+01 2.60939380e+00]
 [2.50000000e+01 2.62605540e+00]
 [2.50000000e+01 2.64272660e+00]
 [2.50000000e+01 2.65940600e+00]
 [2.50000000e+01 2.67605650e+00]
 [2.50000000e+01 2.69272780e+00]
 [2.50000000e+01 2.70939420e+00]
 [2.50000000e+01 2.72605440e+00]
 [2.50000000e+01 2.74272980e+00]
 [2.50000000e+01 2.75938880e+00]
 [2.50000000e+01 2.77605610e+00]
 [2.50000000e+01 2.79272020e+00]
 [2.50000000e+01 2.80942990e+00]
 [2.50000000e+01 2.82605980e+00]
 [2.50000000e+01 2.84272460e+00]
 [2.50000000e+01 2.85937920e+00]
 [2.50000000e+01 2.87546220e+00]
 [2.82523576e+01 2.89228530e+00]
 [3.33317959e+01 2.90941330e+00]
 [3.92578072e+01 2.92605820e+00]
 [4.34906724e+01 2.94271820e+00]
 [4.85701107e+01 2.95940470e+00]
 [5.19564029e+01 2.97608110e+00]
 [5.44961221e+01 2.99272780e+00]
 [5.87289873e+01 3.00940130e+00]
 [6.29618526e+01 3.02606160e+00]
 [6.80412909e+01 3.04274090e+00]
 [7.14275831e+01 3.05940230e+00]
 [7.56604483e+01 3.07606550e+00]
 [8.15864596e+01 3.09273390e+00]
 [8.58193249e+01 3.10940370e+00]
 [8.92056171e+01 3.12606350e+00]
 [9.42850554e+01 3.14273490e+00]
 [9.76713476e+01 3.15940660e+00]
 [1.02750786e+02 3.17607200e+00]
 [1.06983651e+02 3.19273290e+00]
 [1.11216516e+02 3.20941610e+00]
 [1.16295955e+02 3.22606850e+00]
 [1.20528820e+02 3.24274060e+00]
 [1.24761685e+02 3.25939850e+00]
 [1.28147977e+02 3.27607530e+00]
 [1.28994550e+02 3.29273640e+00]
 [1.29841123e+02 3.30940120e+00]
 [1.31534270e+02 3.32607240e+00]
 [1.33227416e+02 3.34273730e+00]
 [1.33227416e+02 3.35939880e+00]
 [1.33227416e+02 3.37606950e+00]
 [1.33227416e+02 3.39273660e+00]
 [1.33227416e+02 3.40940740e+00]
 [1.33227416e+02 3.42607820e+00]
 [1.34073989e+02 3.44273880e+00]
 [1.34073989e+02 3.45940830e+00]
 [1.34073989e+02 3.47607110e+00]
 [1.34073989e+02 3.49274090e+00]
 [1.34073989e+02 3.50944600e+00]
 [1.34073989e+02 3.52607040e+00]
 [1.34073989e+02 3.54275830e+00]
 [1.34073989e+02 3.55941260e+00]
 [1.34073989e+02 3.57608100e+00]
 [1.34073989e+02 3.59274490e+00]
 [1.34073989e+02 3.60943290e+00]
 [1.34073989e+02 3.62609110e+00]
 [1.34073989e+02 3.64274870e+00]
 [1.34073989e+02 3.65941450e+00]
 [1.34073989e+02 3.67605880e+00]
 [1.34073989e+02 3.69274820e+00]
 [1.34073989e+02 3.70942570e+00]
 [1.34073989e+02 3.72565000e+00]
 [1.34073989e+02 3.74230250e+00]
 [1.34073989e+02 3.75897410e+00]
 [1.34073989e+02 3.77559310e+00]
 [1.34073989e+02 3.79224910e+00]
 [1.34073989e+02 3.80895260e+00]
 [1.34073989e+02 3.82557740e+00]
 [1.34073989e+02 3.84229100e+00]
 [1.36613708e+02 3.85895520e+00]
 [1.36613708e+02 3.87609800e+00]
 [1.36613708e+02 3.89275410e+00]
 [1.36613708e+02 3.90942250e+00]
 [1.36613708e+02 3.92607950e+00]
 [1.36613708e+02 3.94275920e+00]
 [1.36613708e+02 3.95941510e+00]
 [1.36613708e+02 3.97608470e+00]
 [1.36613708e+02 3.99276550e+00]
 [1.36613708e+02 4.00943780e+00]
 [1.36613708e+02 4.02608080e+00]
 [1.36613708e+02 4.04276590e+00]
 [1.36613708e+02 4.05943780e+00]
 [1.36613708e+02 4.07608090e+00]
 [1.36613708e+02 4.09276140e+00]
 [1.36613708e+02 4.10942810e+00]
 [1.36613708e+02 4.12607730e+00]
 [1.36613708e+02 4.14226360e+00]
 [1.36613708e+02 4.15889780e+00]
 [1.36613708e+02 4.17554280e+00]
 [1.36613708e+02 4.19218470e+00]
 [1.36613708e+02 4.20892320e+00]
 [1.36613708e+02 4.22560870e+00]
 [1.36613708e+02 4.24229770e+00]
 [1.36613708e+02 4.25897390e+00]
 [1.36613708e+02 4.27559590e+00]
 [1.36613708e+02 4.29229310e+00]
 [1.36613708e+02 4.30896230e+00]
 [1.36613708e+02 4.32566310e+00]
 [1.36613708e+02 4.34234020e+00]
 [1.36613708e+02 4.35896920e+00]
 [1.40000000e+02 4.37559340e+00]
 [1.46772584e+02 4.39215020e+00]
 [1.46772584e+02 4.40942030e+00]
 [1.46772584e+02 4.42610280e+00]
 [1.46772584e+02 4.44276110e+00]
 [1.51852023e+02 4.45942070e+00]
 [1.57778034e+02 4.47608880e+00]
 [1.67090338e+02 4.49277440e+00]
 [1.69630057e+02 4.50941160e+00]
 [1.71323203e+02 4.52610120e+00]
 [1.72169776e+02 4.54274170e+00]
 [1.72169776e+02 4.55948130e+00]
 [1.73862922e+02 4.57615230e+00]
 [1.74709495e+02 4.59278940e+00]
 [1.77249214e+02 4.60946420e+00]
 [1.80635506e+02 4.62611340e+00]
 [1.85714945e+02 4.64278120e+00]
 [1.89101237e+02 4.65942700e+00]
 [1.93334102e+02 4.67612100e+00]
 [1.98413540e+02 4.69275390e+00]
 [2.00106686e+02 4.70942470e+00]
 [2.01799833e+02 4.72609570e+00]
 [2.04339552e+02 4.74275340e+00]
 [2.07725844e+02 4.75942180e+00]
 [2.10265563e+02 4.77609360e+00]
 [2.12805282e+02 4.79276310e+00]
 [2.14498428e+02 4.80941880e+00]
 [2.15345001e+02 4.82608910e+00]
 [2.17038147e+02 4.84275650e+00]
 [2.19577867e+02 4.85942060e+00]
 [2.22964159e+02 4.87609520e+00]
 [2.26350451e+02 4.89275840e+00]
 [2.28890170e+02 4.90943540e+00]
 [2.28890170e+02 4.92608540e+00]
 [2.29736743e+02 4.94275900e+00]
 [2.30583316e+02 4.95942710e+00]
 [2.32276462e+02 4.97609800e+00]
 [2.36509328e+02 4.99276330e+00]
 [2.41588766e+02 5.00943430e+00]
 [2.45821631e+02 5.02609460e+00]
 [2.49207923e+02 5.04276250e+00]
 [2.49207923e+02 5.05943490e+00]
 [2.49207923e+02 5.07610100e+00]
 [2.49207923e+02 5.09276680e+00]
 [2.50901069e+02 5.10943300e+00]
 [2.52594215e+02 5.12610180e+00]
 [2.54287362e+02 5.14276110e+00]
 [2.55000000e+02 5.15943930e+00]
 [2.55000000e+02 5.17560610e+00]
 [2.55000000e+02 5.19216980e+00]
 [2.55000000e+02 5.20883370e+00]
 [2.55000000e+02 5.22559200e+00]
 [2.55000000e+02 5.24230130e+00]
 [2.55000000e+02 5.25896900e+00]
 [2.55000000e+02 5.27560690e+00]
 [2.55000000e+02 5.29230390e+00]
 [2.55000000e+02 5.30897410e+00]
 [2.55000000e+02 5.32565460e+00]
 [2.55000000e+02 5.34230070e+00]
 [2.55000000e+02 5.35896770e+00]
 [2.55000000e+02 5.37560430e+00]
 [2.55000000e+02 5.39231990e+00]
 [2.49207923e+02 5.40895320e+00]
 [2.40742193e+02 5.42609870e+00]
 [2.32276462e+02 5.44276730e+00]
 [2.22964159e+02 5.45943500e+00]
 [2.11958709e+02 5.47610130e+00]
 [1.95027248e+02 5.49278860e+00]
 [1.78095787e+02 5.50943300e+00]
 [1.61164326e+02 5.52611370e+00]
 [1.44232865e+02 5.54277800e+00]
 [1.30687696e+02 5.55944000e+00]
 [1.22221966e+02 5.57611000e+00]
 [1.18835674e+02 5.59277140e+00]
 [1.17142528e+02 5.60942670e+00]
 [1.14602809e+02 5.62610600e+00]
 [1.08676797e+02 5.64277150e+00]
 [1.01904213e+02 5.65944020e+00]
 [9.42850554e+01 5.67610250e+00]
 [8.58193249e+01 5.69277500e+00]
 [7.98933135e+01 5.70943680e+00]
 [7.48138752e+01 5.72611530e+00]
 [6.97344370e+01 5.74277300e+00]
 [6.38084256e+01 5.75944490e+00]
 [5.87289873e+01 5.77610450e+00]
 [5.19564029e+01 5.79277270e+00]
 [4.77235377e+01 5.80943740e+00]
 [4.26440994e+01 5.82610610e+00]
 [3.84112342e+01 5.84277240e+00]
 [3.50249420e+01 5.85943950e+00]
 [3.33317959e+01 5.87610310e+00]
 [2.99455037e+01 5.89277480e+00]
 [2.74057845e+01 5.90946870e+00]
 [2.74057845e+01 5.92611040e+00]
 [2.57126384e+01 5.94279040e+00]
 [2.50000000e+01 5.95943760e+00]
 [2.50000000e+01 5.97562210e+00]
 [2.50000000e+01 5.99231440e+00]
 [2.50000000e+01 6.00897990e+00]
 [2.50000000e+01 6.02564210e+00]
 [2.50000000e+01 6.04231720e+00]]","[[ 0.00000000e+00  6.80005178e-06]
 [ 0.00000000e+00  9.36840009e-03]
 [ 0.00000000e+00  2.60312001e-02]
 [ 0.00000000e+00  4.26872000e-02]
 [ 0.00000000e+00  5.93554000e-02]
 [ 0.00000000e+00  7.60265001e-02]
 [ 0.00000000e+00  9.26870001e-02]
 [ 0.00000000e+00  1.09359100e-01]
 [ 0.00000000e+00  1.26018000e-01]
 [ 0.00000000e+00  1.42695400e-01]
 [ 0.00000000e+00  1.59346300e-01]
 [ 0.00000000e+00  1.76027500e-01]
 [ 0.00000000e+00  1.92685000e-01]
 [ 0.00000000e+00  2.09354300e-01]
 [ 0.00000000e+00  2.26029100e-01]
 [ 0.00000000e+00  2.42691200e-01]
 [ 0.00000000e+00  2.59372700e-01]
 [ 0.00000000e+00  2.75548500e-01]
 [ 0.00000000e+00  2.92246200e-01]
 [ 0.00000000e+00  3.08896600e-01]
 [ 0.00000000e+00  3.25562400e-01]
 [ 0.00000000e+00  3.42224100e-01]
 [ 0.00000000e+00  3.58894800e-01]
 [ 0.00000000e+00  3.75528900e-01]
 [ 0.00000000e+00  3.92055500e-01]
 [ 0.00000000e+00  4.08891800e-01]
 [ 0.00000000e+00  4.25426500e-01]
 [ 0.00000000e+00  4.42198000e-01]
 [ 0.00000000e+00  4.58912100e-01]
 [ 0.00000000e+00  4.75530000e-01]
 [ 0.00000000e+00  4.92233500e-01]
 [ 0.00000000e+00  5.08896500e-01]
 [ 0.00000000e+00  5.25578600e-01]
 [ 0.00000000e+00  5.42240200e-01]
 [ 0.00000000e+00  5.58902100e-01]
 [ 0.00000000e+00  5.75545900e-01]
 [ 0.00000000e+00  5.92237100e-01]
 [ 0.00000000e+00  6.08896500e-01]
 [ 0.00000000e+00  6.25580600e-01]
 [ 0.00000000e+00  6.42172400e-01]
 [ 0.00000000e+00  6.58871900e-01]
 [ 0.00000000e+00  6.75440000e-01]
 [ 0.00000000e+00  6.92253400e-01]
 [ 0.00000000e+00  7.08902500e-01]
 [ 0.00000000e+00  7.25578800e-01]
 [ 0.00000000e+00  7.42230200e-01]
 [ 0.00000000e+00  7.58911800e-01]
 [ 0.00000000e+00  7.75547400e-01]
 [ 0.00000000e+00  7.92220500e-01]
 [ 0.00000000e+00  8.08899700e-01]
 [ 0.00000000e+00  8.25579800e-01]
 [ 0.00000000e+00  8.42222400e-01]
 [ 0.00000000e+00  8.58914400e-01]
 [ 0.00000000e+00  8.75537400e-01]
 [ 0.00000000e+00  8.92235400e-01]
 [ 0.00000000e+00  9.08901800e-01]
 [ 0.00000000e+00  9.25588800e-01]
 [ 0.00000000e+00  9.42233400e-01]
 [ 0.00000000e+00  9.58850600e-01]
 [ 0.00000000e+00  9.75467400e-01]
 [ 0.00000000e+00  9.92223100e-01]
 [ 0.00000000e+00  1.00890620e+00]
 [ 0.00000000e+00  1.02559250e+00]
 [ 2.20845143e-02  1.04224070e+00]
 [ 1.17784076e-01  1.05936390e+00]
 [ 1.69314610e-01  1.07603340e+00]
 [ 2.06122134e-01  1.09269690e+00]
 [ 2.35568153e-01  1.10937470e+00]
 [ 2.57652667e-01  1.12603400e+00]
 [ 3.16544705e-01  1.14270570e+00]
 [ 3.60713734e-01  1.15937500e+00]
 [ 4.19605772e-01  1.17605400e+00]
 [ 4.63774801e-01  1.19270730e+00]
 [ 5.07943829e-01  1.20937550e+00]
 [ 5.30028344e-01  1.22603610e+00]
 [ 5.59474363e-01  1.24268910e+00]
 [ 5.81558877e-01  1.25936740e+00]
 [ 6.55173925e-01  1.27599930e+00]
 [ 7.87681011e-01  1.29270650e+00]
 [ 8.61296058e-01  1.30937180e+00]
 [ 9.12826592e-01  1.32604150e+00]
 [ 9.71718630e-01  1.34271030e+00]
 [ 1.00000000e+00  1.35937120e+00]
 [ 1.00000000e+00  1.37604240e+00]
 [ 1.00000000e+00  1.39270380e+00]
 [ 1.00000000e+00  1.40939390e+00]
 [ 1.00000000e+00  1.42604840e+00]
 [ 1.00000000e+00  1.44270000e+00]
 [ 1.00000000e+00  1.45936800e+00]
 [ 1.00000000e+00  1.47604530e+00]
 [ 1.00000000e+00  1.49270960e+00]
 [ 1.00000000e+00  1.50939040e+00]
 [ 1.00000000e+00  1.52603750e+00]
 [ 1.00000000e+00  1.54270640e+00]
 [ 1.00000000e+00  1.55938140e+00]
 [ 1.00000000e+00  1.57604370e+00]
 [ 1.00000000e+00  1.59270900e+00]
 [ 1.00000000e+00  1.60938110e+00]
 [ 1.00000000e+00  1.62604660e+00]
 [ 1.00000000e+00  1.64226460e+00]
 [ 1.00000000e+00  1.65893300e+00]
 [ 1.00000000e+00  1.67555780e+00]
 [ 1.00000000e+00  1.69219520e+00]
 [ 1.00000000e+00  1.70891620e+00]
 [ 1.00000000e+00  1.72559130e+00]
 [ 1.00000000e+00  1.74229610e+00]
 [ 1.00000000e+00  1.75891390e+00]
 [ 9.27549601e-01  1.77555190e+00]
 [ 8.46573049e-01  1.79275860e+00]
 [ 8.09765525e-01  1.80942770e+00]
 [ 7.72958001e-01  1.82607260e+00]
 [ 7.43511982e-01  1.84273410e+00]
 [ 7.14065963e-01  1.85940030e+00]
 [ 6.69896934e-01  1.87605340e+00]
 [ 5.96281887e-01  1.89271610e+00]
 [ 5.37389848e-01  1.90938600e+00]
 [ 4.49051791e-01  1.92606970e+00]
 [ 3.90159753e-01  1.94271900e+00]
 [ 3.38629219e-01  1.95940460e+00]
 [ 2.79737181e-01  1.97604980e+00]
 [ 2.42929657e-01  1.99271300e+00]
 [ 1.84037619e-01  2.00938560e+00]
 [ 1.17784076e-01  2.02604690e+00]
 [ 6.62535429e-02  2.04271090e+00]
 [ 7.36150477e-03  2.05941210e+00]
 [-4.41690286e-02  2.07604510e+00]
 [-1.17784076e-01  2.09270970e+00]
 [-1.61953105e-01  2.10939610e+00]
 [-2.06122134e-01  2.12603340e+00]
 [-2.50291162e-01  2.14270650e+00]
 [-2.87098686e-01  2.15936580e+00]
 [-3.23906210e-01  2.17606060e+00]
 [-3.38629219e-01  2.19272190e+00]
 [-3.60713734e-01  2.20938690e+00]
 [-3.82798248e-01  2.22605140e+00]
 [-4.04882762e-01  2.24272470e+00]
 [-4.41690286e-01  2.25939430e+00]
 [-5.07943829e-01  2.27605360e+00]
 [-5.81558877e-01  2.29271780e+00]
 [-6.03643391e-01  2.30939570e+00]
 [-6.25727906e-01  2.32605850e+00]
 [-6.47812420e-01  2.34271840e+00]
 [-7.14065963e-01  2.35939720e+00]
 [-7.72958001e-01  2.37605390e+00]
 [-8.39211544e-01  2.39272390e+00]
 [-8.61296058e-01  2.40939430e+00]
 [-8.68657563e-01  2.42605940e+00]
 [-8.90742077e-01  2.44272500e+00]
 [-8.90742077e-01  2.45938580e+00]
 [-9.20188096e-01  2.47606190e+00]
 [-9.49634116e-01  2.49272380e+00]
 [-9.56995620e-01  2.50940430e+00]
 [-9.64357125e-01  2.52605720e+00]
 [-9.64357125e-01  2.54272550e+00]
 [-9.64357125e-01  2.55940080e+00]
 [-9.86441639e-01  2.57605340e+00]
 [-1.00000000e+00  2.59271490e+00]
 [-1.00000000e+00  2.60939380e+00]
 [-1.00000000e+00  2.62605540e+00]
 [-1.00000000e+00  2.64272660e+00]
 [-1.00000000e+00  2.65940600e+00]
 [-1.00000000e+00  2.67605650e+00]
 [-1.00000000e+00  2.69272780e+00]
 [-1.00000000e+00  2.70939420e+00]
 [-1.00000000e+00  2.72605440e+00]
 [-1.00000000e+00  2.74272980e+00]
 [-1.00000000e+00  2.75938880e+00]
 [-1.00000000e+00  2.77605610e+00]
 [-1.00000000e+00  2.79272020e+00]
 [-1.00000000e+00  2.80942990e+00]
 [-1.00000000e+00  2.82605980e+00]
 [-1.00000000e+00  2.84272460e+00]
 [-1.00000000e+00  2.85937920e+00]
 [-1.00000000e+00  2.87546220e+00]
 [-9.71718630e-01  2.89228530e+00]
 [-9.27549601e-01  2.90941330e+00]
 [-8.76019068e-01  2.92605820e+00]
 [-8.39211544e-01  2.94271820e+00]
 [-7.95042515e-01  2.95940470e+00]
 [-7.65596496e-01  2.97608110e+00]
 [-7.43511982e-01  2.99272780e+00]
 [-7.06704458e-01  3.00940130e+00]
 [-6.69896934e-01  3.02606160e+00]
 [-6.25727906e-01  3.04274090e+00]
 [-5.96281887e-01  3.05940230e+00]
 [-5.59474363e-01  3.07606550e+00]
 [-5.07943829e-01  3.09273390e+00]
 [-4.71136305e-01  3.10940370e+00]
 [-4.41690286e-01  3.12606350e+00]
 [-3.97521258e-01  3.14273490e+00]
 [-3.68075239e-01  3.15940660e+00]
 [-3.23906210e-01  3.17607200e+00]
 [-2.87098686e-01  3.19273290e+00]
 [-2.50291162e-01  3.20941610e+00]
 [-2.06122134e-01  3.22606850e+00]
 [-1.69314610e-01  3.24274060e+00]
 [-1.32507086e-01  3.25939850e+00]
 [-1.03061067e-01  3.27607530e+00]
 [-9.56995620e-02  3.29273640e+00]
 [-8.83380573e-02  3.30940120e+00]
 [-7.36150477e-02  3.32607240e+00]
 [-5.88920382e-02  3.34273730e+00]
 [-5.88920382e-02  3.35939880e+00]
 [-5.88920382e-02  3.37606950e+00]
 [-5.88920382e-02  3.39273660e+00]
 [-5.88920382e-02  3.40940740e+00]
 [-5.88920382e-02  3.42607820e+00]
 [-5.15305334e-02  3.44273880e+00]
 [-5.15305334e-02  3.45940830e+00]
 [-5.15305334e-02  3.47607110e+00]
 [-5.15305334e-02  3.49274090e+00]
 [-5.15305334e-02  3.50944600e+00]
 [-5.15305334e-02  3.52607040e+00]
 [-5.15305334e-02  3.54275830e+00]
 [-5.15305334e-02  3.55941260e+00]
 [-5.15305334e-02  3.57608100e+00]
 [-5.15305334e-02  3.59274490e+00]
 [-5.15305334e-02  3.60943290e+00]
 [-5.15305334e-02  3.62609110e+00]
 [-5.15305334e-02  3.64274870e+00]
 [-5.15305334e-02  3.65941450e+00]
 [-5.15305334e-02  3.67605880e+00]
 [-5.15305334e-02  3.69274820e+00]
 [-5.15305334e-02  3.70942570e+00]
 [-5.15305334e-02  3.72565000e+00]
 [-5.15305334e-02  3.74230250e+00]
 [-5.15305334e-02  3.75897410e+00]
 [-5.15305334e-02  3.77559310e+00]
 [-5.15305334e-02  3.79224910e+00]
 [-5.15305334e-02  3.80895260e+00]
 [-5.15305334e-02  3.82557740e+00]
 [-5.15305334e-02  3.84229100e+00]
 [-2.94460191e-02  3.85895520e+00]
 [-2.94460191e-02  3.87609800e+00]
 [-2.94460191e-02  3.89275410e+00]
 [-2.94460191e-02  3.90942250e+00]
 [-2.94460191e-02  3.92607950e+00]
 [-2.94460191e-02  3.94275920e+00]
 [-2.94460191e-02  3.95941510e+00]
 [-2.94460191e-02  3.97608470e+00]
 [-2.94460191e-02  3.99276550e+00]
 [-2.94460191e-02  4.00943780e+00]
 [-2.94460191e-02  4.02608080e+00]
 [-2.94460191e-02  4.04276590e+00]
 [-2.94460191e-02  4.05943780e+00]
 [-2.94460191e-02  4.07608090e+00]
 [-2.94460191e-02  4.09276140e+00]
 [-2.94460191e-02  4.10942810e+00]
 [-2.94460191e-02  4.12607730e+00]
 [-2.94460191e-02  4.14226360e+00]
 [-2.94460191e-02  4.15889780e+00]
 [-2.94460191e-02  4.17554280e+00]
 [-2.94460191e-02  4.19218470e+00]
 [-2.94460191e-02  4.20892320e+00]
 [-2.94460191e-02  4.22560870e+00]
 [-2.94460191e-02  4.24229770e+00]
 [-2.94460191e-02  4.25897390e+00]
 [-2.94460191e-02  4.27559590e+00]
 [-2.94460191e-02  4.29229310e+00]
 [-2.94460191e-02  4.30896230e+00]
 [-2.94460191e-02  4.32566310e+00]
 [-2.94460191e-02  4.34234020e+00]
 [-2.94460191e-02  4.35896920e+00]
 [ 0.00000000e+00  4.37559340e+00]
 [ 5.88920382e-02  4.39215020e+00]
 [ 5.88920382e-02  4.40942030e+00]
 [ 5.88920382e-02  4.42610280e+00]
 [ 5.88920382e-02  4.44276110e+00]
 [ 1.03061067e-01  4.45942070e+00]
 [ 1.54591600e-01  4.47608880e+00]
 [ 2.35568153e-01  4.49277440e+00]
 [ 2.57652667e-01  4.50941160e+00]
 [ 2.72375677e-01  4.52610120e+00]
 [ 2.79737181e-01  4.54274170e+00]
 [ 2.79737181e-01  4.55948130e+00]
 [ 2.94460191e-01  4.57615230e+00]
 [ 3.01821696e-01  4.59278940e+00]
 [ 3.23906210e-01  4.60946420e+00]
 [ 3.53352229e-01  4.62611340e+00]
 [ 3.97521258e-01  4.64278120e+00]
 [ 4.26967277e-01  4.65942700e+00]
 [ 4.63774801e-01  4.67612100e+00]
 [ 5.07943829e-01  4.69275390e+00]
 [ 5.22666839e-01  4.70942470e+00]
 [ 5.37389848e-01  4.72609570e+00]
 [ 5.59474363e-01  4.74275340e+00]
 [ 5.88920382e-01  4.75942180e+00]
 [ 6.11004896e-01  4.77609360e+00]
 [ 6.33089410e-01  4.79276310e+00]
 [ 6.47812420e-01  4.80941880e+00]
 [ 6.55173925e-01  4.82608910e+00]
 [ 6.69896934e-01  4.84275650e+00]
 [ 6.91981449e-01  4.85942060e+00]
 [ 7.21427468e-01  4.87609520e+00]
 [ 7.50873487e-01  4.89275840e+00]
 [ 7.72958001e-01  4.90943540e+00]
 [ 7.72958001e-01  4.92608540e+00]
 [ 7.80319506e-01  4.94275900e+00]
 [ 7.87681011e-01  4.95942710e+00]
 [ 8.02404020e-01  4.97609800e+00]
 [ 8.39211544e-01  4.99276330e+00]
 [ 8.83380573e-01  5.00943430e+00]
 [ 9.20188096e-01  5.02609460e+00]
 [ 9.49634116e-01  5.04276250e+00]
 [ 9.49634116e-01  5.05943490e+00]
 [ 9.49634116e-01  5.07610100e+00]
 [ 9.49634116e-01  5.09276680e+00]
 [ 9.64357125e-01  5.10943300e+00]
 [ 9.79080135e-01  5.12610180e+00]
 [ 9.93803144e-01  5.14276110e+00]
 [ 1.00000000e+00  5.15943930e+00]
 [ 1.00000000e+00  5.17560610e+00]
 [ 1.00000000e+00  5.19216980e+00]
 [ 1.00000000e+00  5.20883370e+00]
 [ 1.00000000e+00  5.22559200e+00]
 [ 1.00000000e+00  5.24230130e+00]
 [ 1.00000000e+00  5.25896900e+00]
 [ 1.00000000e+00  5.27560690e+00]
 [ 1.00000000e+00  5.29230390e+00]
 [ 1.00000000e+00  5.30897410e+00]
 [ 1.00000000e+00  5.32565460e+00]
 [ 1.00000000e+00  5.34230070e+00]
 [ 1.00000000e+00  5.35896770e+00]
 [ 1.00000000e+00  5.37560430e+00]
 [ 1.00000000e+00  5.39231990e+00]
 [ 9.49634116e-01  5.40895320e+00]
 [ 8.76019068e-01  5.42609870e+00]
 [ 8.02404020e-01  5.44276730e+00]
 [ 7.21427468e-01  5.45943500e+00]
 [ 6.25727906e-01  5.47610130e+00]
 [ 4.78497810e-01  5.49278860e+00]
 [ 3.31267715e-01  5.50943300e+00]
 [ 1.84037619e-01  5.52611370e+00]
 [ 3.68075239e-02  5.54277800e+00]
 [-8.09765525e-02  5.55944000e+00]
 [-1.54591600e-01  5.57611000e+00]
 [-1.84037619e-01  5.59277140e+00]
 [-1.98760629e-01  5.60942670e+00]
 [-2.20845143e-01  5.62610600e+00]
 [-2.72375677e-01  5.64277150e+00]
 [-3.31267715e-01  5.65944020e+00]
 [-3.97521258e-01  5.67610250e+00]
 [-4.71136305e-01  5.69277500e+00]
 [-5.22666839e-01  5.70943680e+00]
 [-5.66835867e-01  5.72611530e+00]
 [-6.11004896e-01  5.74277300e+00]
 [-6.62535429e-01  5.75944490e+00]
 [-7.06704458e-01  5.77610450e+00]
 [-7.65596496e-01  5.79277270e+00]
 [-8.02404020e-01  5.80943740e+00]
 [-8.46573049e-01  5.82610610e+00]
 [-8.83380573e-01  5.84277240e+00]
 [-9.12826592e-01  5.85943950e+00]
 [-9.27549601e-01  5.87610310e+00]
 [-9.56995620e-01  5.89277480e+00]
 [-9.79080135e-01  5.90946870e+00]
 [-9.79080135e-01  5.92611040e+00]
 [-9.93803144e-01  5.94279040e+00]
 [-1.00000000e+00  5.95943760e+00]
 [-1.00000000e+00  5.97562210e+00]
 [-1.00000000e+00  5.99231440e+00]
 [-1.00000000e+00  6.00897990e+00]
 [-1.00000000e+00  6.02564210e+00]
 [-1.00000000e+00  6.04231720e+00]]",32,A,non_immersive,No,8,2024-05-03_11h43.52.467,Experiment_VR_non_immersive,59.988398225277415,
1,../amsterdam_dynamic_facial_expression_set/F01-Disgust-Face Forward.mp4,arousal,right,HV-LA,direct,0,,,,,0,1,1,0,"[[ 0.          0.0105178 ]
 [ 0.          0.0271374 ]
 [ 0.          0.043746  ]
 [ 0.          0.0608025 ]
 [ 0.          0.0770712 ]
 [ 0.          0.0946568 ]
 [ 0.          0.1104247 ]
 [ 0.          0.1279863 ]
 [ 0.          0.1437779 ]
 [ 0.          0.1612482 ]
 [ 0.          0.1770826 ]
 [ 0.          0.1946324 ]
 [ 0.          0.2104308 ]
 [ 0.          0.2278845 ]
 [ 0.          0.2436334 ]
 [ 0.          0.2612315 ]
 [ 0.          0.2770929 ]
 [ 0.          0.294613  ]
 [ 0.          0.310423  ]
 [ 0.          0.3279749 ]
 [ 0.          0.3437856 ]
 [ 0.          0.3612226 ]
 [ 0.          0.3769817 ]
 [ 0.          0.3946323 ]
 [ 0.          0.41042   ]
 [ 0.          0.4279505 ]
 [ 0.          0.443775  ]
 [ 0.          0.4612468 ]
 [ 0.          0.4769769 ]
 [ 0.          0.4945869 ]
 [ 0.          0.5103094 ]
 [ 0.          0.5278941 ]
 [ 0.          0.5437942 ]
 [ 0.          0.5611426 ]
 [ 0.          0.5770963 ]
 [ 0.          0.5946188 ]
 [ 0.          0.6104374 ]
 [ 0.          0.6278949 ]
 [ 0.          0.6436376 ]
 [ 0.          0.6612675 ]
 [ 0.          0.677078  ]
 [ 0.          0.6946164 ]
 [ 0.          0.7104305 ]
 [ 0.          0.7279677 ]
 [ 0.          0.743786  ]
 [ 0.          0.7612555 ]
 [ 0.          0.7770867 ]
 [ 0.          0.794605  ]
 [ 0.          0.810418  ]
 [ 0.          0.8279885 ]
 [ 0.          0.84379   ]
 [ 0.          0.8612496 ]
 [ 0.          0.8771008 ]
 [ 0.          0.8946011 ]
 [ 0.          0.9104415 ]
 [ 0.          0.92799   ]
 [ 0.          0.9438083 ]
 [ 0.          0.9612586 ]
 [ 0.          0.9771015 ]
 [ 0.          0.994648  ]
 [ 0.          1.0104311 ]
 [ 0.          1.0278721 ]
 [ 0.          1.0437832 ]
 [ 0.          1.0612979 ]
 [ 0.          1.077081  ]
 [ 0.          1.0946234 ]
 [ 0.          1.1104557 ]
 [ 0.          1.1279422 ]
 [ 0.          1.1437903 ]
 [ 0.          1.161175  ]
 [ 0.          1.1770982 ]
 [ 0.          1.1946856 ]
 [ 0.          1.2104454 ]
 [ 0.          1.2279802 ]
 [ 0.          1.243803  ]
 [ 0.05889204  1.2611851 ]
 [ 0.16931461  1.2770967 ]
 [ 0.32390621  1.2946154 ]
 [ 0.47849781  1.3104295 ]
 [ 0.58155888  1.3278942 ]
 [ 0.60364339  1.3438051 ]
 [ 0.60364339  1.3611469 ]
 [ 0.60364339  1.3769665 ]
 [ 0.60364339  1.3944303 ]
 [ 0.6183664   1.4104246 ]
 [ 0.62572791  1.427913  ]
 [ 0.63308941  1.4437997 ]
 [ 0.64781242  1.4612813 ]
 [ 0.68461994  1.4770194 ]
 [ 0.73615048  1.4946083 ]
 [ 0.772958    1.5104444 ]
 [ 0.79504252  1.5279755 ]
 [ 0.79504252  1.5437965 ]
 [ 0.79504252  1.561263  ]
 [ 0.80240402  1.5770972 ]
 [ 0.80976552  1.5945103 ]
 [ 0.83185004  1.6104299 ]
 [ 0.83921154  1.6279497 ]
 [ 0.84657305  1.6437534 ]
 [ 0.84657305  1.6612514 ]
 [ 0.84657305  1.6770914 ]
 [ 0.85393455  1.6946262 ]
 [ 0.86129606  1.7104327 ]
 [ 0.87601907  1.7279501 ]
 [ 0.90546509  1.7438164 ]
 [ 0.9275496   1.761256  ]
 [ 0.93491111  1.7770623 ]
 [ 0.94227261  1.7944219 ]
 [ 0.94227261  1.8103188 ]
 [ 0.95699562  1.8280187 ]
 [ 0.97908013  1.8438298 ]
 [ 1.          1.8612547 ]
 [ 1.          1.8770971 ]
 [ 1.          1.894652  ]
 [ 1.          1.9103486 ]
 [ 1.          1.9279752 ]
 [ 1.          1.943654  ]
 [ 1.          1.9613152 ]
 [ 1.          1.9770061 ]
 [ 1.          1.99463   ]
 [ 1.          2.0103413 ]
 [ 0.99380314  2.02797   ]
 [ 0.94227261  2.0438088 ]
 [ 0.87601907  2.0612632 ]
 [ 0.82448853  2.0771066 ]
 [ 0.772958    2.0946343 ]
 [ 0.70670446  2.1104577 ]
 [ 0.64781242  2.1279004 ]
 [ 0.53002834  2.1437722 ]
 [ 0.42696728  2.1611518 ]
 [ 0.33126771  2.1770163 ]
 [ 0.25765267  2.1945737 ]
 [ 0.19876063  2.2103606 ]
 [ 0.13986859  2.2279915 ]
 [ 0.06625354  2.2437757 ]
 [-0.02208451  2.2613148 ]
 [-0.11778408  2.2770296 ]
 [-0.19139912  2.2946251 ]
 [-0.25765267  2.3104769 ]
 [-0.33862922  2.3279773 ]
 [-0.40488276  2.3438221 ]
 [-0.43432878  2.3613191 ]
 [-0.4637748   2.3770184 ]
 [-0.49322082  2.3944994 ]
 [-0.52266684  2.4103474 ]
 [-0.55211286  2.4279419 ]
 [-0.56683587  2.4438189 ]
 [-0.60364339  2.461268  ]
 [-0.63308941  2.4770227 ]
 [-0.67725844  2.4946298 ]
 [-0.72878897  2.5104875 ]
 [-0.75823499  2.5278749 ]
 [-0.78768101  2.5436639 ]
 [-0.78768101  2.5611898 ]
 [-0.80240402  2.5771241 ]
 [-0.80976552  2.5945284 ]
 [-0.83185004  2.6104065 ]
 [-0.84657305  2.6279601 ]
 [-0.86865756  2.643812  ]
 [-0.87601907  2.6612897 ]
 [-0.9201881   2.6770196 ]
 [-0.9275496   2.6946344 ]
 [-0.94963412  2.7104475 ]
 [-0.94963412  2.7280046 ]
 [-0.96435713  2.7438159 ]
 [-0.96435713  2.7613384 ]
 [-0.96435713  2.7771127 ]
 [-0.97171863  2.7945144 ]
 [-0.99380314  2.8103486 ]
 [-1.          2.827943  ]
 [-1.          2.8437821 ]
 [-1.          2.8612812 ]
 [-1.          2.8771075 ]
 [-1.          2.8946502 ]
 [-1.          2.9104794 ]
 [-1.          2.927939  ]
 [-1.          2.9436766 ]
 [-1.          2.9614555 ]
 [-1.          2.9771377 ]
 [-1.          2.9947081 ]
 [-1.          3.0103577 ]
 [-1.          3.0279449 ]
 [-1.          3.0438305 ]
 [-1.          3.0611731 ]
 [-1.          3.0771181 ]
 [-1.          3.0946502 ]
 [-0.99380314  3.1104728 ]
 [-0.96435713  3.1279807 ]
 [-0.93491111  3.1436758 ]
 [-0.9201881   3.1613547 ]
 [-0.89074208  3.177038  ]
 [-0.82448853  3.1945407 ]
 [-0.772958    3.2103585 ]
 [-0.70670446  3.227973  ]
 [-0.64781242  3.2438325 ]
 [-0.59628189  3.2612967 ]
 [-0.53738985  3.2771022 ]
 [-0.4637748   3.2947024 ]
 [-0.39752126  3.3104585 ]
 [-0.34599072  3.3279123 ]
 [-0.28709869  3.3437882 ]
 [-0.25765267  3.3612051 ]
 [-0.23556815  3.3771274 ]
 [-0.20612213  3.3945612 ]
 [-0.1619531   3.4103578 ]
 [-0.11042257  3.4279861 ]
 [-0.08097655  3.4437881 ]
 [-0.07361505  3.4613078 ]
 [-0.05889204  3.4771247 ]
 [-0.05889204  3.4946747 ]
 [-0.05153053  3.5104615 ]
 [-0.03680752  3.5279878 ]
 [-0.01472301  3.5438383 ]
 [ 0.          3.5613083 ]
 [ 0.0073615   3.5771264 ]
 [ 0.0073615   3.5946719 ]
 [ 0.0073615   3.610495  ]
 [ 0.0073615   3.6280173 ]
 [ 0.0073615   3.6438252 ]
 [ 0.0073615   3.6612773 ]
 [ 0.0073615   3.6771385 ]
 [ 0.0073615   3.6946708 ]
 [ 0.0073615   3.710472  ]
 [ 0.0073615   3.7278667 ]
 [ 0.0073615   3.7436879 ]
 [ 0.0073615   3.7613082 ]
 [ 0.0073615   3.7771217 ]
 [ 0.0073615   3.7946721 ]
 [ 0.0073615   3.8104806 ]
 [ 0.0073615   3.8279427 ]
 [ 0.0073615   3.8438388 ]
 [ 0.0073615   3.8612811 ]
 [ 0.0073615   3.8770318 ]
 [ 0.0073615   3.894759  ]
 [ 0.0073615   3.9103685 ]
 [ 0.0073615   3.927999  ]
 [ 0.06625354  3.9438414 ]
 [ 0.07361505  3.9613113 ]
 [ 0.07361505  3.9771461 ]
 [ 0.07361505  3.9946734 ]
 [ 0.07361505  4.0104677 ]
 [ 0.07361505  4.0280153 ]
 [ 0.07361505  4.0438013 ]
 [ 0.07361505  4.0611762 ]
 [ 0.07361505  4.0771313 ]
 [ 0.07361505  4.0947129 ]
 [ 0.07361505  4.1104762 ]
 [ 0.07361505  4.1278884 ]
 [ 0.07361505  4.1436967 ]
 [ 0.07361505  4.1611539 ]
 [ 0.07361505  4.1771504 ]
 [ 0.07361505  4.194678  ]
 [ 0.07361505  4.2104837 ]
 [ 0.07361505  4.2280353 ]
 [ 0.07361505  4.2438241 ]
 [ 0.07361505  4.2613064 ]
 [ 0.07361505  4.2771339 ]
 [ 0.07361505  4.2946495 ]
 [ 0.07361505  4.3104656 ]
 [ 0.07361505  4.3279843 ]
 [ 0.07361505  4.3438027 ]
 [ 0.07361505  4.3613717 ]
 [ 0.07361505  4.3771296 ]
 [ 0.07361505  4.3945749 ]
 [ 0.07361505  4.4104689 ]
 [ 0.07361505  4.4279776 ]
 [ 0.07361505  4.4438532 ]
 [ 0.07361505  4.4612979 ]
 [ 0.07361505  4.477155  ]
 [ 0.07361505  4.4947153 ]
 [ 0.07361505  4.5105008 ]
 [ 0.07361505  4.5278965 ]
 [ 0.07361505  4.5436936 ]
 [ 0.07361505  4.5612219 ]
 [ 0.07361505  4.5771383 ]
 [ 0.07361505  4.5946418 ]
 [ 0.07361505  4.6104744 ]
 [ 0.07361505  4.6279636 ]
 [ 0.07361505  4.6438029 ]
 [ 0.07361505  4.6613034 ]
 [ 0.07361505  4.6771795 ]
 [ 0.07361505  4.694682  ]
 [ 0.07361505  4.7104757 ]
 [ 0.07361505  4.7278363 ]
 [ 0.07361505  4.7438458 ]
 [ 0.07361505  4.761139  ]
 [ 0.07361505  4.7771776 ]
 [ 0.07361505  4.7946559 ]
 [ 0.07361505  4.8104933 ]
 [ 0.07361505  4.8279767 ]
 [ 0.07361505  4.8438481 ]
 [ 0.07361505  4.8612995 ]
 [ 0.07361505  4.8771446 ]
 [ 0.07361505  4.8946581 ]
 [ 0.07361505  4.9104992 ]
 [ 0.07361505  4.9278873 ]
 [ 0.07361505  4.9437016 ]
 [ 0.07361505  4.9613653 ]
 [ 0.07361505  4.9771598 ]
 [ 0.07361505  4.9946504 ]
 [ 0.07361505  5.0104972 ]
 [ 0.07361505  5.0280097 ]
 [ 0.07361505  5.0438602 ]
 [ 0.07361505  5.061327  ]
 [ 0.07361505  5.0772243 ]
 [ 0.07361505  5.0947556 ]
 [ 0.07361505  5.1105084 ]
 [ 0.07361505  5.1280414 ]
 [ 0.07361505  5.1438605 ]
 [ 0.07361505  5.161299  ]
 [ 0.07361505  5.1771449 ]
 [ 0.07361505  5.1946747 ]
 [ 0.07361505  5.2103823 ]
 [ 0.07361505  5.2280101 ]
 [ 0.07361505  5.2437039 ]
 [ 0.07361505  5.2612201 ]
 [ 0.07361505  5.2770317 ]
 [ 0.07361505  5.2944941 ]
 [ 0.07361505  5.3104831 ]
 [ 0.07361505  5.3278852 ]
 [ 0.07361505  5.3438763 ]
 [ 0.07361505  5.3612773 ]
 [ 0.07361505  5.377155  ]
 [ 0.07361505  5.394634  ]
 [ 0.07361505  5.4104992 ]
 [ 0.07361505  5.4280206 ]
 [ 0.07361505  5.44386   ]
 [ 0.07361505  5.4612683 ]
 [ 0.07361505  5.4771689 ]
 [ 0.07361505  5.4946364 ]
 [ 0.07361505  5.5104827 ]
 [ 0.07361505  5.5279608 ]
 [ 0.07361505  5.5438195 ]
 [ 0.07361505  5.5612707 ]
 [ 0.07361505  5.5770069 ]
 [ 0.07361505  5.594683  ]
 [ 0.07361505  5.6103901 ]
 [ 0.07361505  5.6279093 ]
 [ 0.07361505  5.6438607 ]
 [ 0.07361505  5.6612338 ]
 [ 0.07361505  5.6770838 ]
 [ 0.07361505  5.6945531 ]
 [ 0.07361505  5.7103882 ]
 [ 0.07361505  5.7279415 ]
 [ 0.07361505  5.7438594 ]
 [ 0.07361505  5.76118   ]
 [ 0.07361505  5.7771541 ]
 [ 0.07361505  5.794627  ]
 [ 0.07361505  5.8104944 ]
 [ 0.07361505  5.8278596 ]
 [ 0.07361505  5.8438228 ]
 [ 0.07361505  5.8612943 ]
 [ 0.07361505  5.8771569 ]
 [ 0.07361505  5.8946478 ]
 [ 0.07361505  5.9104975 ]
 [ 0.07361505  5.927929  ]
 [ 0.07361505  5.9438665 ]
 [ 0.07361505  5.961179  ]
 [ 0.07361505  5.9771633 ]
 [ 0.07361505  5.9947008 ]
 [ 0.07361505  6.010504  ]
 [ 0.07361505  6.0277033 ]
 [ 0.07361505  6.0443325 ]]",6.01,None,None,None,None,None,False,False,False,False,False,True,True,"[[ 0.00000000e+00  7.20005482e-06]
 [ 0.00000000e+00  9.23040009e-03]
 [ 0.00000000e+00  2.57532001e-02]
 [ 0.00000000e+00  4.24619000e-02]
 [ 0.00000000e+00  5.92104001e-02]
 [ 0.00000000e+00  7.58692001e-02]
 [ 0.00000000e+00  9.25383001e-02]
 [ 0.00000000e+00  1.09137000e-01]
 [ 0.00000000e+00  1.25879800e-01]
 [ 0.00000000e+00  1.42454500e-01]
 [ 0.00000000e+00  1.59211400e-01]
 [ 0.00000000e+00  1.75892700e-01]
 [ 0.00000000e+00  1.92551600e-01]
 [ 0.00000000e+00  2.09138500e-01]
 [ 0.00000000e+00  2.25897900e-01]
 [ 0.00000000e+00  2.42552600e-01]
 [ 0.00000000e+00  2.59191100e-01]
 [ 0.00000000e+00  2.75860200e-01]
 [ 0.00000000e+00  2.92538100e-01]
 [ 0.00000000e+00  3.09140300e-01]
 [ 0.00000000e+00  3.25882100e-01]
 [ 0.00000000e+00  3.42550900e-01]
 [ 0.00000000e+00  3.59172500e-01]
 [ 0.00000000e+00  3.75795100e-01]
 [ 0.00000000e+00  3.92457000e-01]
 [ 0.00000000e+00  4.09142700e-01]
 [ 0.00000000e+00  4.25881600e-01]
 [ 0.00000000e+00  4.42556600e-01]
 [ 0.00000000e+00  4.59139500e-01]
 [ 0.00000000e+00  4.75889500e-01]
 [ 0.00000000e+00  4.92552700e-01]
 [ 0.00000000e+00  5.09151300e-01]
 [ 0.00000000e+00  5.25917100e-01]
 [ 0.00000000e+00  5.42561000e-01]
 [ 0.00000000e+00  5.59172100e-01]
 [ 0.00000000e+00  5.75858200e-01]
 [ 0.00000000e+00  5.92551300e-01]
 [ 0.00000000e+00  6.09088900e-01]
 [ 0.00000000e+00  6.25870500e-01]
 [ 0.00000000e+00  6.42535900e-01]
 [ 0.00000000e+00  6.59217700e-01]
 [ 0.00000000e+00  6.75886700e-01]
 [ 0.00000000e+00  6.92584300e-01]
 [ 0.00000000e+00  7.09138300e-01]
 [ 0.00000000e+00  7.25856600e-01]
 [ 0.00000000e+00  7.42531900e-01]
 [ 0.00000000e+00  7.59179800e-01]
 [ 0.00000000e+00  7.75780000e-01]
 [ 0.00000000e+00  7.92530300e-01]
 [ 0.00000000e+00  8.09128000e-01]
 [ 0.00000000e+00  8.25932600e-01]
 [ 0.00000000e+00  8.42585400e-01]
 [ 0.00000000e+00  8.59222100e-01]
 [ 0.00000000e+00  8.75922600e-01]
 [ 0.00000000e+00  8.92589300e-01]
 [ 0.00000000e+00  9.09225900e-01]
 [ 0.00000000e+00  9.25923000e-01]
 [ 0.00000000e+00  9.42588300e-01]
 [ 0.00000000e+00  9.59258500e-01]
 [ 0.00000000e+00  9.75934000e-01]
 [ 2.20845143e-02  9.92593900e-01]
 [ 5.15305334e-02  1.00922940e+00]
 [ 8.83380573e-02  1.02592520e+00]
 [ 1.39868591e-01  1.04260030e+00]
 [ 1.76676115e-01  1.05924360e+00]
 [ 2.13483638e-01  1.07591580e+00]
 [ 2.28206648e-01  1.09259560e+00]
 [ 2.35568153e-01  1.10924150e+00]
 [ 2.42929657e-01  1.12578460e+00]
 [ 2.65014172e-01  1.14245200e+00]
 [ 2.72375677e-01  1.15920270e+00]
 [ 2.94460191e-01  1.17593430e+00]
 [ 3.16544705e-01  1.19261300e+00]
 [ 3.38629219e-01  1.20922310e+00]
 [ 3.60713734e-01  1.22593000e+00]
 [ 3.90159753e-01  1.24259670e+00]
 [ 4.26967277e-01  1.25928340e+00]
 [ 4.34328782e-01  1.27637830e+00]
 [ 4.49051791e-01  1.29305980e+00]
 [ 4.93220820e-01  1.30973080e+00]
 [ 5.30028344e-01  1.32638380e+00]
 [ 5.59474363e-01  1.34306230e+00]
 [ 5.96281887e-01  1.35973230e+00]
 [ 6.25727906e-01  1.37640290e+00]
 [ 6.47812420e-01  1.39305650e+00]
 [ 6.77258439e-01  1.40972850e+00]
 [ 7.06704458e-01  1.42638680e+00]
 [ 7.50873487e-01  1.44306630e+00]
 [ 7.80319506e-01  1.45973090e+00]
 [ 7.95042515e-01  1.47639410e+00]
 [ 8.09765525e-01  1.49305870e+00]
 [ 8.61296058e-01  1.50972910e+00]
 [ 9.20188096e-01  1.52634880e+00]
 [ 9.56995620e-01  1.54305920e+00]
 [ 9.86441639e-01  1.55973550e+00]
 [ 1.00000000e+00  1.57640050e+00]
 [ 1.00000000e+00  1.59306130e+00]
 [ 1.00000000e+00  1.60972640e+00]
 [ 1.00000000e+00  1.62639120e+00]
 [ 1.00000000e+00  1.64306490e+00]
 [ 1.00000000e+00  1.65974340e+00]
 [ 1.00000000e+00  1.67639230e+00]
 [ 1.00000000e+00  1.69307760e+00]
 [ 1.00000000e+00  1.70973250e+00]
 [ 1.00000000e+00  1.72639970e+00]
 [ 1.00000000e+00  1.74306290e+00]
 [ 1.00000000e+00  1.75973360e+00]
 [ 1.00000000e+00  1.77640530e+00]
 [ 9.64357125e-01  1.79306430e+00]
 [ 8.83380573e-01  1.80973410e+00]
 [ 8.09765525e-01  1.82640990e+00]
 [ 7.50873487e-01  1.84307180e+00]
 [ 6.99342953e-01  1.85973020e+00]
 [ 6.40450915e-01  1.87594010e+00]
 [ 5.52112858e-01  1.89256390e+00]
 [ 3.90159753e-01  1.90923730e+00]
 [ 2.87098686e-01  1.92590990e+00]
 [ 1.98760629e-01  1.94255210e+00]
 [ 9.56995620e-02  1.95914710e+00]
 [ 1.47230095e-02  1.97583230e+00]
 [-5.88920382e-02  1.99261080e+00]
 [-1.39868591e-01  2.00927500e+00]
 [-2.42929657e-01  2.02594220e+00]
 [-3.09183200e-01  2.04306900e+00]
 [-3.68075239e-01  2.05973400e+00]
 [-4.26967277e-01  2.07641000e+00]
 [-4.78497810e-01  2.09307620e+00]
 [-5.74197372e-01  2.10977060e+00]
 [-6.47812420e-01  2.12640700e+00]
 [-6.84619944e-01  2.14307470e+00]
 [-7.28788972e-01  2.15974310e+00]
 [-7.58234991e-01  2.17640900e+00]
 [-8.09765525e-01  2.19306800e+00]
 [-8.39211544e-01  2.20975590e+00]
 [-8.53934554e-01  2.22640760e+00]
 [-8.68657563e-01  2.24308170e+00]
 [-8.68657563e-01  2.25974790e+00]
 [-8.83380573e-01  2.27638400e+00]
 [-8.90742077e-01  2.29306490e+00]
 [-9.27549601e-01  2.30972530e+00]
 [-9.56995620e-01  2.32641150e+00]
 [-9.79080135e-01  2.34308060e+00]
 [-1.00000000e+00  2.35974380e+00]
 [-1.00000000e+00  2.37641150e+00]
 [-1.00000000e+00  2.39307120e+00]
 [-1.00000000e+00  2.40974590e+00]
 [-1.00000000e+00  2.42640550e+00]
 [-1.00000000e+00  2.44307570e+00]
 [-1.00000000e+00  2.45973870e+00]
 [-1.00000000e+00  2.47641410e+00]
 [-1.00000000e+00  2.49307440e+00]
 [-1.00000000e+00  2.50974410e+00]
 [-1.00000000e+00  2.52640500e+00]
 [-1.00000000e+00  2.54307410e+00]
 [-1.00000000e+00  2.55974460e+00]
 [-1.00000000e+00  2.57641430e+00]
 [-1.00000000e+00  2.59307560e+00]
 [-1.00000000e+00  2.60974320e+00]
 [-1.00000000e+00  2.62635830e+00]
 [-1.00000000e+00  2.64308260e+00]
 [-1.00000000e+00  2.65974490e+00]
 [-1.00000000e+00  2.67641260e+00]
 [-1.00000000e+00  2.69307280e+00]
 [-1.00000000e+00  2.70974370e+00]
 [-1.00000000e+00  2.72641460e+00]
 [-9.71718630e-01  2.74308270e+00]
 [-9.05465087e-01  2.75975230e+00]
 [-8.76019068e-01  2.77642220e+00]
 [-8.39211544e-01  2.79308060e+00]
 [-8.09765525e-01  2.80974910e+00]
 [-7.95042515e-01  2.82641540e+00]
 [-7.50873487e-01  2.84263780e+00]
 [-6.91981449e-01  2.85930310e+00]
 [-6.25727906e-01  2.87595560e+00]
 [-5.66835867e-01  2.89263030e+00]
 [-5.15305334e-01  2.90929160e+00]
 [-4.93220820e-01  2.92593750e+00]
 [-4.63774801e-01  2.94256850e+00]
 [-4.34328782e-01  2.95924960e+00]
 [-3.97521258e-01  2.97595590e+00]
 [-3.53352229e-01  2.99262360e+00]
 [-3.45990724e-01  3.00929810e+00]
 [-3.31267715e-01  3.02578040e+00]
 [-3.09183200e-01  3.04248350e+00]
 [-2.87098686e-01  3.05925560e+00]
 [-2.50291162e-01  3.07595710e+00]
 [-2.28206648e-01  3.09262220e+00]
 [-1.98760629e-01  3.10929290e+00]
 [-1.84037619e-01  3.12640860e+00]
 [-1.84037619e-01  3.14308730e+00]
 [-1.76676115e-01  3.15976920e+00]
 [-1.61953105e-01  3.17644400e+00]
 [-1.32507086e-01  3.19308740e+00]
 [-1.25145581e-01  3.20975540e+00]
 [-1.17784076e-01  3.22641620e+00]
 [-1.10422572e-01  3.24309420e+00]
 [-1.10422572e-01  3.25975700e+00]
 [-1.10422572e-01  3.27641890e+00]
 [-1.10422572e-01  3.29308390e+00]
 [-1.10422572e-01  3.30976030e+00]
 [-1.10422572e-01  3.32642820e+00]
 [-1.10422572e-01  3.34308870e+00]
 [-1.10422572e-01  3.35975660e+00]
 [-1.10422572e-01  3.37642600e+00]
 [-1.10422572e-01  3.39310000e+00]
 [-1.10422572e-01  3.40976810e+00]
 [-1.10422572e-01  3.42638870e+00]
 [-1.10422572e-01  3.44307900e+00]
 [-1.10422572e-01  3.45975600e+00]
 [-1.10422572e-01  3.47642640e+00]
 [-1.10422572e-01  3.49309020e+00]
 [-1.10422572e-01  3.50976500e+00]
 [-1.10422572e-01  3.52593270e+00]
 [-1.10422572e-01  3.54308960e+00]
 [-1.10422572e-01  3.55976590e+00]
 [-1.10422572e-01  3.57598410e+00]
 [-1.10422572e-01  3.59310370e+00]
 [-1.10422572e-01  3.60976490e+00]
 [-1.10422572e-01  3.62642570e+00]
 [-1.10422572e-01  3.64309920e+00]
 [-1.10422572e-01  3.65975980e+00]
 [-1.10422572e-01  3.67642650e+00]
 [-1.10422572e-01  3.69310880e+00]
 [-1.10422572e-01  3.70976980e+00]
 [-1.10422572e-01  3.72638830e+00]
 [-1.10422572e-01  3.74307980e+00]
 [-1.10422572e-01  3.75976380e+00]
 [-1.10422572e-01  3.77643090e+00]
 [-1.10422572e-01  3.79309690e+00]
 [-1.10422572e-01  3.80977000e+00]
 [-1.10422572e-01  3.82644830e+00]
 [-1.03061067e-01  3.84264130e+00]
 [-1.03061067e-01  3.85932170e+00]
 [-1.03061067e-01  3.87595760e+00]
 [-1.03061067e-01  3.89263410e+00]
 [-9.56995620e-02  3.90930550e+00]
 [-9.56995620e-02  3.92593330e+00]
 [-9.56995620e-02  3.94263620e+00]
 [-9.56995620e-02  3.95975740e+00]
 [-9.56995620e-02  3.97643430e+00]
 [-9.56995620e-02  3.99309940e+00]
 [-8.09765525e-02  4.00977290e+00]
 [-8.09765525e-02  4.02644590e+00]
 [-8.09765525e-02  4.04310130e+00]
 [-8.09765525e-02  4.05977770e+00]
 [-8.09765525e-02  4.07643820e+00]
 [-8.09765525e-02  4.09310370e+00]
 [-8.09765525e-02  4.10975410e+00]
 [-8.09765525e-02  4.12643340e+00]
 [-8.09765525e-02  4.14310440e+00]
 [-8.09765525e-02  4.15976580e+00]
 [-8.09765525e-02  4.17644060e+00]
 [-8.09765525e-02  4.19310860e+00]
 [-8.09765525e-02  4.20976830e+00]
 [-8.09765525e-02  4.22645210e+00]
 [-8.09765525e-02  4.24264320e+00]
 [-8.09765525e-02  4.25930810e+00]
 [-8.09765525e-02  4.27596660e+00]
 [-8.09765525e-02  4.29264200e+00]
 [-8.09765525e-02  4.30930720e+00]
 [-8.09765525e-02  4.32593480e+00]
 [-8.09765525e-02  4.34264430e+00]
 [-8.09765525e-02  4.35930880e+00]
 [-8.09765525e-02  4.37597890e+00]
 [-8.09765525e-02  4.39264310e+00]
 [-8.09765525e-02  4.40931090e+00]
 [-7.36150477e-02  4.42595820e+00]
 [-5.88920382e-02  4.44264830e+00]
 [-5.88920382e-02  4.45931470e+00]
 [-5.88920382e-02  4.47583740e+00]
 [-5.88920382e-02  4.49250390e+00]
 [-5.88920382e-02  4.50917890e+00]
 [-5.88920382e-02  4.52585250e+00]
 [-5.88920382e-02  4.54264460e+00]
 [-5.88920382e-02  4.55925930e+00]
 [-5.88920382e-02  4.57596800e+00]
 [-5.88920382e-02  4.59264540e+00]
 [-5.88920382e-02  4.60931270e+00]
 [-5.88920382e-02  4.62592770e+00]
 [-5.88920382e-02  4.64264300e+00]
 [-5.88920382e-02  4.65931330e+00]
 [-5.88920382e-02  4.67597260e+00]
 [-5.88920382e-02  4.69264580e+00]
 [-5.88920382e-02  4.70931440e+00]
 [-5.88920382e-02  4.72593310e+00]
 [-5.88920382e-02  4.74264840e+00]
 [-5.88920382e-02  4.75931790e+00]
 [-5.88920382e-02  4.77597520e+00]
 [-5.88920382e-02  4.79264820e+00]
 [-5.88920382e-02  4.80931540e+00]
 [-5.88920382e-02  4.82587990e+00]
 [-5.88920382e-02  4.84264690e+00]
 [-5.88920382e-02  4.85915920e+00]
 [-5.88920382e-02  4.87597210e+00]
 [-5.88920382e-02  4.89265070e+00]
 [-5.15305334e-02  4.90931650e+00]
 [-5.15305334e-02  4.92594780e+00]
 [-4.41690286e-02  4.94266170e+00]
 [-4.41690286e-02  4.95925600e+00]
 [-4.41690286e-02  4.97597540e+00]
 [-4.41690286e-02  4.99266380e+00]
 [-4.41690286e-02  5.00932060e+00]
 [-4.41690286e-02  5.02594870e+00]
 [-4.41690286e-02  5.04266220e+00]
 [-4.41690286e-02  5.05927430e+00]
 [-4.41690286e-02  5.07597660e+00]
 [-4.41690286e-02  5.09265390e+00]
 [-4.41690286e-02  5.10931070e+00]
 [-4.41690286e-02  5.12595080e+00]
 [-4.41690286e-02  5.14265190e+00]
 [-4.41690286e-02  5.15931830e+00]
 [-4.41690286e-02  5.17598070e+00]
 [-4.41690286e-02  5.19266160e+00]
 [-4.41690286e-02  5.20931360e+00]
 [-4.41690286e-02  5.22581250e+00]
 [-4.41690286e-02  5.24252160e+00]
 [-4.41690286e-02  5.25927690e+00]
 [-4.41690286e-02  5.27597780e+00]
 [-4.41690286e-02  5.29265710e+00]
 [-4.41690286e-02  5.30931250e+00]
 [-4.41690286e-02  5.32593850e+00]
 [-4.41690286e-02  5.34265450e+00]
 [-4.41690286e-02  5.35932680e+00]
 [-4.41690286e-02  5.37598850e+00]
 [-4.41690286e-02  5.39265790e+00]
 [-4.41690286e-02  5.40931650e+00]
 [-4.41690286e-02  5.42595380e+00]
 [-4.41690286e-02  5.44266530e+00]
 [-4.41690286e-02  5.45932440e+00]
 [-4.41690286e-02  5.47598230e+00]
 [-4.41690286e-02  5.49265940e+00]
 [-4.41690286e-02  5.50933260e+00]
 [-4.41690286e-02  5.52595500e+00]
 [-4.41690286e-02  5.54266230e+00]
 [-4.41690286e-02  5.55932590e+00]
 [-4.41690286e-02  5.57598950e+00]
 [-4.41690286e-02  5.59266140e+00]
 [-4.41690286e-02  5.60932660e+00]
 [-4.41690286e-02  5.62581780e+00]
 [-4.41690286e-02  5.64252280e+00]
 [-4.41690286e-02  5.65932610e+00]
 [-4.41690286e-02  5.67595900e+00]
 [-4.41690286e-02  5.69266270e+00]
 [-4.41690286e-02  5.70927310e+00]
 [-4.41690286e-02  5.72595640e+00]
 [-4.41690286e-02  5.74262720e+00]
 [-4.41690286e-02  5.75932960e+00]
 [-4.41690286e-02  5.77598690e+00]
 [-4.41690286e-02  5.79266440e+00]
 [-4.41690286e-02  5.80931820e+00]
 [-4.41690286e-02  5.82595940e+00]
 [-4.41690286e-02  5.84266300e+00]
 [-4.41690286e-02  5.85922540e+00]
 [-4.41690286e-02  5.87599320e+00]
 [-4.41690286e-02  5.89266840e+00]
 [-4.41690286e-02  5.90932430e+00]
 [-4.41690286e-02  5.92595980e+00]
 [-4.41690286e-02  5.94266950e+00]
 [-4.41690286e-02  5.95934270e+00]
 [-4.41690286e-02  5.97594300e+00]
 [-4.41690286e-02  5.99271410e+00]
 [-4.41690286e-02  6.00934000e+00]
 [-4.41690286e-02  6.02582570e+00]
 [-4.41690286e-02  6.04252930e+00]]","[[1.40000000e+02 7.20005482e-06]
 [1.40000000e+02 9.23040009e-03]
 [1.40000000e+02 2.57532001e-02]
 [1.40000000e+02 4.24619000e-02]
 [1.40000000e+02 5.92104001e-02]
 [1.40000000e+02 7.58692001e-02]
 [1.40000000e+02 9.25383001e-02]
 [1.40000000e+02 1.09137000e-01]
 [1.40000000e+02 1.25879800e-01]
 [1.40000000e+02 1.42454500e-01]
 [1.40000000e+02 1.59211400e-01]
 [1.40000000e+02 1.75892700e-01]
 [1.40000000e+02 1.92551600e-01]
 [1.40000000e+02 2.09138500e-01]
 [1.40000000e+02 2.25897900e-01]
 [1.40000000e+02 2.42552600e-01]
 [1.40000000e+02 2.59191100e-01]
 [1.40000000e+02 2.75860200e-01]
 [1.40000000e+02 2.92538100e-01]
 [1.40000000e+02 3.09140300e-01]
 [1.40000000e+02 3.25882100e-01]
 [1.40000000e+02 3.42550900e-01]
 [1.40000000e+02 3.59172500e-01]
 [1.40000000e+02 3.75795100e-01]
 [1.40000000e+02 3.92457000e-01]
 [1.40000000e+02 4.09142700e-01]
 [1.40000000e+02 4.25881600e-01]
 [1.40000000e+02 4.42556600e-01]
 [1.40000000e+02 4.59139500e-01]
 [1.40000000e+02 4.75889500e-01]
 [1.40000000e+02 4.92552700e-01]
 [1.40000000e+02 5.09151300e-01]
 [1.40000000e+02 5.25917100e-01]
 [1.40000000e+02 5.42561000e-01]
 [1.40000000e+02 5.59172100e-01]
 [1.40000000e+02 5.75858200e-01]
 [1.40000000e+02 5.92551300e-01]
 [1.40000000e+02 6.09088900e-01]
 [1.40000000e+02 6.25870500e-01]
 [1.40000000e+02 6.42535900e-01]
 [1.40000000e+02 6.59217700e-01]
 [1.40000000e+02 6.75886700e-01]
 [1.40000000e+02 6.92584300e-01]
 [1.40000000e+02 7.09138300e-01]
 [1.40000000e+02 7.25856600e-01]
 [1.40000000e+02 7.42531900e-01]
 [1.40000000e+02 7.59179800e-01]
 [1.40000000e+02 7.75780000e-01]
 [1.40000000e+02 7.92530300e-01]
 [1.40000000e+02 8.09128000e-01]
 [1.40000000e+02 8.25932600e-01]
 [1.40000000e+02 8.42585400e-01]
 [1.40000000e+02 8.59222100e-01]
 [1.40000000e+02 8.75922600e-01]
 [1.40000000e+02 8.92589300e-01]
 [1.40000000e+02 9.09225900e-01]
 [1.40000000e+02 9.25923000e-01]
 [1.40000000e+02 9.42588300e-01]
 [1.40000000e+02 9.59258500e-01]
 [1.40000000e+02 9.75934000e-01]
 [1.40000000e+02 9.92593900e-01]
 [1.40000000e+02 1.00922940e+00]
 [1.40000000e+02 1.02592520e+00]
 [1.40000000e+02 1.04260030e+00]
 [1.40000000e+02 1.05924360e+00]
 [1.40000000e+02 1.07591580e+00]
 [1.40000000e+02 1.09259560e+00]
 [1.40000000e+02 1.10924150e+00]
 [1.40000000e+02 1.12578460e+00]
 [1.40000000e+02 1.14245200e+00]
 [1.40000000e+02 1.15920270e+00]
 [1.40000000e+02 1.17593430e+00]
 [1.40000000e+02 1.19261300e+00]
 [1.40000000e+02 1.20922310e+00]
 [1.40000000e+02 1.22593000e+00]
 [1.40000000e+02 1.24259670e+00]
 [1.46772584e+02 1.25928340e+00]
 [1.59471180e+02 1.27637830e+00]
 [1.77249214e+02 1.29305980e+00]
 [1.95027248e+02 1.30973080e+00]
 [2.06879271e+02 1.32638380e+00]
 [2.09418990e+02 1.34306230e+00]
 [2.09418990e+02 1.35973230e+00]
 [2.09418990e+02 1.37640290e+00]
 [2.09418990e+02 1.39305650e+00]
 [2.11112136e+02 1.40972850e+00]
 [2.11958709e+02 1.42638680e+00]
 [2.12805282e+02 1.44306630e+00]
 [2.14498428e+02 1.45973090e+00]
 [2.18731294e+02 1.47639410e+00]
 [2.24657305e+02 1.49305870e+00]
 [2.28890170e+02 1.50972910e+00]
 [2.31429889e+02 1.52634880e+00]
 [2.31429889e+02 1.54305920e+00]
 [2.31429889e+02 1.55973550e+00]
 [2.32276462e+02 1.57640050e+00]
 [2.33123035e+02 1.59306130e+00]
 [2.35662755e+02 1.60972640e+00]
 [2.36509328e+02 1.62639120e+00]
 [2.37355901e+02 1.64306490e+00]
 [2.37355901e+02 1.65974340e+00]
 [2.37355901e+02 1.67639230e+00]
 [2.38202474e+02 1.69307760e+00]
 [2.39049047e+02 1.70973250e+00]
 [2.40742193e+02 1.72639970e+00]
 [2.44128485e+02 1.74306290e+00]
 [2.46668204e+02 1.75973360e+00]
 [2.47514777e+02 1.77640530e+00]
 [2.48361350e+02 1.79306430e+00]
 [2.48361350e+02 1.80973410e+00]
 [2.50054496e+02 1.82640990e+00]
 [2.52594215e+02 1.84307180e+00]
 [2.55000000e+02 1.85973020e+00]
 [2.55000000e+02 1.87594010e+00]
 [2.55000000e+02 1.89256390e+00]
 [2.55000000e+02 1.90923730e+00]
 [2.55000000e+02 1.92590990e+00]
 [2.55000000e+02 1.94255210e+00]
 [2.55000000e+02 1.95914710e+00]
 [2.55000000e+02 1.97583230e+00]
 [2.55000000e+02 1.99261080e+00]
 [2.55000000e+02 2.00927500e+00]
 [2.54287362e+02 2.02594220e+00]
 [2.48361350e+02 2.04306900e+00]
 [2.40742193e+02 2.05973400e+00]
 [2.34816181e+02 2.07641000e+00]
 [2.28890170e+02 2.09307620e+00]
 [2.21271013e+02 2.10977060e+00]
 [2.14498428e+02 2.12640700e+00]
 [2.00953260e+02 2.14307470e+00]
 [1.89101237e+02 2.15974310e+00]
 [1.78095787e+02 2.17640900e+00]
 [1.69630057e+02 2.19306800e+00]
 [1.62857472e+02 2.20975590e+00]
 [1.56084888e+02 2.22640760e+00]
 [1.47619157e+02 2.24308170e+00]
 [1.37460281e+02 2.25974790e+00]
 [1.26454831e+02 2.27638400e+00]
 [1.17989101e+02 2.29306490e+00]
 [1.10369943e+02 2.30972530e+00]
 [1.01057640e+02 2.32641150e+00]
 [9.34384823e+01 2.34308060e+00]
 [9.00521901e+01 2.35974380e+00]
 [8.66658979e+01 2.37641150e+00]
 [8.32796057e+01 2.39307120e+00]
 [7.98933135e+01 2.40974590e+00]
 [7.65070213e+01 2.42640550e+00]
 [7.48138752e+01 2.44307570e+00]
 [7.05810100e+01 2.45973870e+00]
 [6.71947178e+01 2.47641410e+00]
 [6.21152795e+01 2.49307440e+00]
 [5.61892682e+01 2.50974410e+00]
 [5.28029760e+01 2.52640500e+00]
 [4.94166838e+01 2.54307410e+00]
 [4.94166838e+01 2.55974460e+00]
 [4.77235377e+01 2.57641430e+00]
 [4.68769646e+01 2.59307560e+00]
 [4.43372455e+01 2.60974320e+00]
 [4.26440994e+01 2.62635830e+00]
 [4.01043802e+01 2.64308260e+00]
 [3.92578072e+01 2.65974490e+00]
 [3.41783689e+01 2.67641260e+00]
 [3.33317959e+01 2.69307280e+00]
 [3.07920767e+01 2.70974370e+00]
 [3.07920767e+01 2.72641460e+00]
 [2.90989306e+01 2.74308270e+00]
 [2.90989306e+01 2.75975230e+00]
 [2.90989306e+01 2.77642220e+00]
 [2.82523576e+01 2.79308060e+00]
 [2.57126384e+01 2.80974910e+00]
 [2.50000000e+01 2.82641540e+00]
 [2.50000000e+01 2.84263780e+00]
 [2.50000000e+01 2.85930310e+00]
 [2.50000000e+01 2.87595560e+00]
 [2.50000000e+01 2.89263030e+00]
 [2.50000000e+01 2.90929160e+00]
 [2.50000000e+01 2.92593750e+00]
 [2.50000000e+01 2.94256850e+00]
 [2.50000000e+01 2.95924960e+00]
 [2.50000000e+01 2.97595590e+00]
 [2.50000000e+01 2.99262360e+00]
 [2.50000000e+01 3.00929810e+00]
 [2.50000000e+01 3.02578040e+00]
 [2.50000000e+01 3.04248350e+00]
 [2.50000000e+01 3.05925560e+00]
 [2.50000000e+01 3.07595710e+00]
 [2.50000000e+01 3.09262220e+00]
 [2.57126384e+01 3.10929290e+00]
 [2.90989306e+01 3.12640860e+00]
 [3.24852228e+01 3.14308730e+00]
 [3.41783689e+01 3.15976920e+00]
 [3.75646611e+01 3.17644400e+00]
 [4.51838185e+01 3.19308740e+00]
 [5.11098299e+01 3.20975540e+00]
 [5.87289873e+01 3.22641620e+00]
 [6.55015717e+01 3.24309420e+00]
 [7.14275831e+01 3.25975700e+00]
 [7.82001674e+01 3.27641890e+00]
 [8.66658979e+01 3.29308390e+00]
 [9.42850554e+01 3.30976030e+00]
 [1.00211067e+02 3.32642820e+00]
 [1.06983651e+02 3.34308870e+00]
 [1.10369943e+02 3.35975660e+00]
 [1.12909662e+02 3.37642600e+00]
 [1.16295955e+02 3.39310000e+00]
 [1.21375393e+02 3.40976810e+00]
 [1.27301404e+02 3.42638870e+00]
 [1.30687696e+02 3.44307900e+00]
 [1.31534270e+02 3.45975600e+00]
 [1.33227416e+02 3.47642640e+00]
 [1.33227416e+02 3.49309020e+00]
 [1.34073989e+02 3.50976500e+00]
 [1.35767135e+02 3.52593270e+00]
 [1.38306854e+02 3.54308960e+00]
 [1.40000000e+02 3.55976590e+00]
 [1.40846573e+02 3.57598410e+00]
 [1.40846573e+02 3.59310370e+00]
 [1.40846573e+02 3.60976490e+00]
 [1.40846573e+02 3.62642570e+00]
 [1.40846573e+02 3.64309920e+00]
 [1.40846573e+02 3.65975980e+00]
 [1.40846573e+02 3.67642650e+00]
 [1.40846573e+02 3.69310880e+00]
 [1.40846573e+02 3.70976980e+00]
 [1.40846573e+02 3.72638830e+00]
 [1.40846573e+02 3.74307980e+00]
 [1.40846573e+02 3.75976380e+00]
 [1.40846573e+02 3.77643090e+00]
 [1.40846573e+02 3.79309690e+00]
 [1.40846573e+02 3.80977000e+00]
 [1.40846573e+02 3.82644830e+00]
 [1.40846573e+02 3.84264130e+00]
 [1.40846573e+02 3.85932170e+00]
 [1.40846573e+02 3.87595760e+00]
 [1.40846573e+02 3.89263410e+00]
 [1.40846573e+02 3.90930550e+00]
 [1.40846573e+02 3.92593330e+00]
 [1.47619157e+02 3.94263620e+00]
 [1.48465730e+02 3.95975740e+00]
 [1.48465730e+02 3.97643430e+00]
 [1.48465730e+02 3.99309940e+00]
 [1.48465730e+02 4.00977290e+00]
 [1.48465730e+02 4.02644590e+00]
 [1.48465730e+02 4.04310130e+00]
 [1.48465730e+02 4.05977770e+00]
 [1.48465730e+02 4.07643820e+00]
 [1.48465730e+02 4.09310370e+00]
 [1.48465730e+02 4.10975410e+00]
 [1.48465730e+02 4.12643340e+00]
 [1.48465730e+02 4.14310440e+00]
 [1.48465730e+02 4.15976580e+00]
 [1.48465730e+02 4.17644060e+00]
 [1.48465730e+02 4.19310860e+00]
 [1.48465730e+02 4.20976830e+00]
 [1.48465730e+02 4.22645210e+00]
 [1.48465730e+02 4.24264320e+00]
 [1.48465730e+02 4.25930810e+00]
 [1.48465730e+02 4.27596660e+00]
 [1.48465730e+02 4.29264200e+00]
 [1.48465730e+02 4.30930720e+00]
 [1.48465730e+02 4.32593480e+00]
 [1.48465730e+02 4.34264430e+00]
 [1.48465730e+02 4.35930880e+00]
 [1.48465730e+02 4.37597890e+00]
 [1.48465730e+02 4.39264310e+00]
 [1.48465730e+02 4.40931090e+00]
 [1.48465730e+02 4.42595820e+00]
 [1.48465730e+02 4.44264830e+00]
 [1.48465730e+02 4.45931470e+00]
 [1.48465730e+02 4.47583740e+00]
 [1.48465730e+02 4.49250390e+00]
 [1.48465730e+02 4.50917890e+00]
 [1.48465730e+02 4.52585250e+00]
 [1.48465730e+02 4.54264460e+00]
 [1.48465730e+02 4.55925930e+00]
 [1.48465730e+02 4.57596800e+00]
 [1.48465730e+02 4.59264540e+00]
 [1.48465730e+02 4.60931270e+00]
 [1.48465730e+02 4.62592770e+00]
 [1.48465730e+02 4.64264300e+00]
 [1.48465730e+02 4.65931330e+00]
 [1.48465730e+02 4.67597260e+00]
 [1.48465730e+02 4.69264580e+00]
 [1.48465730e+02 4.70931440e+00]
 [1.48465730e+02 4.72593310e+00]
 [1.48465730e+02 4.74264840e+00]
 [1.48465730e+02 4.75931790e+00]
 [1.48465730e+02 4.77597520e+00]
 [1.48465730e+02 4.79264820e+00]
 [1.48465730e+02 4.80931540e+00]
 [1.48465730e+02 4.82587990e+00]
 [1.48465730e+02 4.84264690e+00]
 [1.48465730e+02 4.85915920e+00]
 [1.48465730e+02 4.87597210e+00]
 [1.48465730e+02 4.89265070e+00]
 [1.48465730e+02 4.90931650e+00]
 [1.48465730e+02 4.92594780e+00]
 [1.48465730e+02 4.94266170e+00]
 [1.48465730e+02 4.95925600e+00]
 [1.48465730e+02 4.97597540e+00]
 [1.48465730e+02 4.99266380e+00]
 [1.48465730e+02 5.00932060e+00]
 [1.48465730e+02 5.02594870e+00]
 [1.48465730e+02 5.04266220e+00]
 [1.48465730e+02 5.05927430e+00]
 [1.48465730e+02 5.07597660e+00]
 [1.48465730e+02 5.09265390e+00]
 [1.48465730e+02 5.10931070e+00]
 [1.48465730e+02 5.12595080e+00]
 [1.48465730e+02 5.14265190e+00]
 [1.48465730e+02 5.15931830e+00]
 [1.48465730e+02 5.17598070e+00]
 [1.48465730e+02 5.19266160e+00]
 [1.48465730e+02 5.20931360e+00]
 [1.48465730e+02 5.22581250e+00]
 [1.48465730e+02 5.24252160e+00]
 [1.48465730e+02 5.25927690e+00]
 [1.48465730e+02 5.27597780e+00]
 [1.48465730e+02 5.29265710e+00]
 [1.48465730e+02 5.30931250e+00]
 [1.48465730e+02 5.32593850e+00]
 [1.48465730e+02 5.34265450e+00]
 [1.48465730e+02 5.35932680e+00]
 [1.48465730e+02 5.37598850e+00]
 [1.48465730e+02 5.39265790e+00]
 [1.48465730e+02 5.40931650e+00]
 [1.48465730e+02 5.42595380e+00]
 [1.48465730e+02 5.44266530e+00]
 [1.48465730e+02 5.45932440e+00]
 [1.48465730e+02 5.47598230e+00]
 [1.48465730e+02 5.49265940e+00]
 [1.48465730e+02 5.50933260e+00]
 [1.48465730e+02 5.52595500e+00]
 [1.48465730e+02 5.54266230e+00]
 [1.48465730e+02 5.55932590e+00]
 [1.48465730e+02 5.57598950e+00]
 [1.48465730e+02 5.59266140e+00]
 [1.48465730e+02 5.60932660e+00]
 [1.48465730e+02 5.62581780e+00]
 [1.48465730e+02 5.64252280e+00]
 [1.48465730e+02 5.65932610e+00]
 [1.48465730e+02 5.67595900e+00]
 [1.48465730e+02 5.69266270e+00]
 [1.48465730e+02 5.70927310e+00]
 [1.48465730e+02 5.72595640e+00]
 [1.48465730e+02 5.74262720e+00]
 [1.48465730e+02 5.75932960e+00]
 [1.48465730e+02 5.77598690e+00]
 [1.48465730e+02 5.79266440e+00]
 [1.48465730e+02 5.80931820e+00]
 [1.48465730e+02 5.82595940e+00]
 [1.48465730e+02 5.84266300e+00]
 [1.48465730e+02 5.85922540e+00]
 [1.48465730e+02 5.87599320e+00]
 [1.48465730e+02 5.89266840e+00]
 [1.48465730e+02 5.90932430e+00]
 [1.48465730e+02 5.92595980e+00]
 [1.48465730e+02 5.94266950e+00]
 [1.48465730e+02 5.95934270e+00]
 [1.48465730e+02 5.97594300e+00]
 [1.48465730e+02 5.99271410e+00]
 [1.48465730e+02 6.00934000e+00]
 [1.48465730e+02 6.02582570e+00]
 [1.48465730e+02 6.04252930e+00]]","[[ 0.00000000e+00  7.20005482e-06]
 [ 0.00000000e+00  9.23040009e-03]
 [ 0.00000000e+00  2.57532001e-02]
 [ 0.00000000e+00  4.24619000e-02]
 [ 0.00000000e+00  5.92104001e-02]
 [ 0.00000000e+00  7.58692001e-02]
 [ 0.00000000e+00  9.25383001e-02]
 [ 0.00000000e+00  1.09137000e-01]
 [ 0.00000000e+00  1.25879800e-01]
 [ 0.00000000e+00  1.42454500e-01]
 [ 0.00000000e+00  1.59211400e-01]
 [ 0.00000000e+00  1.75892700e-01]
 [ 0.00000000e+00  1.92551600e-01]
 [ 0.00000000e+00  2.09138500e-01]
 [ 0.00000000e+00  2.25897900e-01]
 [ 0.00000000e+00  2.42552600e-01]
 [ 0.00000000e+00  2.59191100e-01]
 [ 0.00000000e+00  2.75860200e-01]
 [ 0.00000000e+00  2.92538100e-01]
 [ 0.00000000e+00  3.09140300e-01]
 [ 0.00000000e+00  3.25882100e-01]
 [ 0.00000000e+00  3.42550900e-01]
 [ 0.00000000e+00  3.59172500e-01]
 [ 0.00000000e+00  3.75795100e-01]
 [ 0.00000000e+00  3.92457000e-01]
 [ 0.00000000e+00  4.09142700e-01]
 [ 0.00000000e+00  4.25881600e-01]
 [ 0.00000000e+00  4.42556600e-01]
 [ 0.00000000e+00  4.59139500e-01]
 [ 0.00000000e+00  4.75889500e-01]
 [ 0.00000000e+00  4.92552700e-01]
 [ 0.00000000e+00  5.09151300e-01]
 [ 0.00000000e+00  5.25917100e-01]
 [ 0.00000000e+00  5.42561000e-01]
 [ 0.00000000e+00  5.59172100e-01]
 [ 0.00000000e+00  5.75858200e-01]
 [ 0.00000000e+00  5.92551300e-01]
 [ 0.00000000e+00  6.09088900e-01]
 [ 0.00000000e+00  6.25870500e-01]
 [ 0.00000000e+00  6.42535900e-01]
 [ 0.00000000e+00  6.59217700e-01]
 [ 0.00000000e+00  6.75886700e-01]
 [ 0.00000000e+00  6.92584300e-01]
 [ 0.00000000e+00  7.09138300e-01]
 [ 0.00000000e+00  7.25856600e-01]
 [ 0.00000000e+00  7.42531900e-01]
 [ 0.00000000e+00  7.59179800e-01]
 [ 0.00000000e+00  7.75780000e-01]
 [ 0.00000000e+00  7.92530300e-01]
 [ 0.00000000e+00  8.09128000e-01]
 [ 0.00000000e+00  8.25932600e-01]
 [ 0.00000000e+00  8.42585400e-01]
 [ 0.00000000e+00  8.59222100e-01]
 [ 0.00000000e+00  8.75922600e-01]
 [ 0.00000000e+00  8.92589300e-01]
 [ 0.00000000e+00  9.09225900e-01]
 [ 0.00000000e+00  9.25923000e-01]
 [ 0.00000000e+00  9.42588300e-01]
 [ 0.00000000e+00  9.59258500e-01]
 [ 0.00000000e+00  9.75934000e-01]
 [ 0.00000000e+00  9.92593900e-01]
 [ 0.00000000e+00  1.00922940e+00]
 [ 0.00000000e+00  1.02592520e+00]
 [ 0.00000000e+00  1.04260030e+00]
 [ 0.00000000e+00  1.05924360e+00]
 [ 0.00000000e+00  1.07591580e+00]
 [ 0.00000000e+00  1.09259560e+00]
 [ 0.00000000e+00  1.10924150e+00]
 [ 0.00000000e+00  1.12578460e+00]
 [ 0.00000000e+00  1.14245200e+00]
 [ 0.00000000e+00  1.15920270e+00]
 [ 0.00000000e+00  1.17593430e+00]
 [ 0.00000000e+00  1.19261300e+00]
 [ 0.00000000e+00  1.20922310e+00]
 [ 0.00000000e+00  1.22593000e+00]
 [ 0.00000000e+00  1.24259670e+00]
 [ 5.88920382e-02  1.25928340e+00]
 [ 1.69314610e-01  1.27637830e+00]
 [ 3.23906210e-01  1.29305980e+00]
 [ 4.78497810e-01  1.30973080e+00]
 [ 5.81558877e-01  1.32638380e+00]
 [ 6.03643391e-01  1.34306230e+00]
 [ 6.03643391e-01  1.35973230e+00]
 [ 6.03643391e-01  1.37640290e+00]
 [ 6.03643391e-01  1.39305650e+00]
 [ 6.18366401e-01  1.40972850e+00]
 [ 6.25727906e-01  1.42638680e+00]
 [ 6.33089410e-01  1.44306630e+00]
 [ 6.47812420e-01  1.45973090e+00]
 [ 6.84619944e-01  1.47639410e+00]
 [ 7.36150477e-01  1.49305870e+00]
 [ 7.72958001e-01  1.50972910e+00]
 [ 7.95042515e-01  1.52634880e+00]
 [ 7.95042515e-01  1.54305920e+00]
 [ 7.95042515e-01  1.55973550e+00]
 [ 8.02404020e-01  1.57640050e+00]
 [ 8.09765525e-01  1.59306130e+00]
 [ 8.31850039e-01  1.60972640e+00]
 [ 8.39211544e-01  1.62639120e+00]
 [ 8.46573049e-01  1.64306490e+00]
 [ 8.46573049e-01  1.65974340e+00]
 [ 8.46573049e-01  1.67639230e+00]
 [ 8.53934554e-01  1.69307760e+00]
 [ 8.61296058e-01  1.70973250e+00]
 [ 8.76019068e-01  1.72639970e+00]
 [ 9.05465087e-01  1.74306290e+00]
 [ 9.27549601e-01  1.75973360e+00]
 [ 9.34911106e-01  1.77640530e+00]
 [ 9.42272611e-01  1.79306430e+00]
 [ 9.42272611e-01  1.80973410e+00]
 [ 9.56995620e-01  1.82640990e+00]
 [ 9.79080135e-01  1.84307180e+00]
 [ 1.00000000e+00  1.85973020e+00]
 [ 1.00000000e+00  1.87594010e+00]
 [ 1.00000000e+00  1.89256390e+00]
 [ 1.00000000e+00  1.90923730e+00]
 [ 1.00000000e+00  1.92590990e+00]
 [ 1.00000000e+00  1.94255210e+00]
 [ 1.00000000e+00  1.95914710e+00]
 [ 1.00000000e+00  1.97583230e+00]
 [ 1.00000000e+00  1.99261080e+00]
 [ 1.00000000e+00  2.00927500e+00]
 [ 9.93803144e-01  2.02594220e+00]
 [ 9.42272611e-01  2.04306900e+00]
 [ 8.76019068e-01  2.05973400e+00]
 [ 8.24488534e-01  2.07641000e+00]
 [ 7.72958001e-01  2.09307620e+00]
 [ 7.06704458e-01  2.10977060e+00]
 [ 6.47812420e-01  2.12640700e+00]
 [ 5.30028344e-01  2.14307470e+00]
 [ 4.26967277e-01  2.15974310e+00]
 [ 3.31267715e-01  2.17640900e+00]
 [ 2.57652667e-01  2.19306800e+00]
 [ 1.98760629e-01  2.20975590e+00]
 [ 1.39868591e-01  2.22640760e+00]
 [ 6.62535429e-02  2.24308170e+00]
 [-2.20845143e-02  2.25974790e+00]
 [-1.17784076e-01  2.27638400e+00]
 [-1.91399124e-01  2.29306490e+00]
 [-2.57652667e-01  2.30972530e+00]
 [-3.38629219e-01  2.32641150e+00]
 [-4.04882762e-01  2.34308060e+00]
 [-4.34328782e-01  2.35974380e+00]
 [-4.63774801e-01  2.37641150e+00]
 [-4.93220820e-01  2.39307120e+00]
 [-5.22666839e-01  2.40974590e+00]
 [-5.52112858e-01  2.42640550e+00]
 [-5.66835867e-01  2.44307570e+00]
 [-6.03643391e-01  2.45973870e+00]
 [-6.33089410e-01  2.47641410e+00]
 [-6.77258439e-01  2.49307440e+00]
 [-7.28788972e-01  2.50974410e+00]
 [-7.58234991e-01  2.52640500e+00]
 [-7.87681011e-01  2.54307410e+00]
 [-7.87681011e-01  2.55974460e+00]
 [-8.02404020e-01  2.57641430e+00]
 [-8.09765525e-01  2.59307560e+00]
 [-8.31850039e-01  2.60974320e+00]
 [-8.46573049e-01  2.62635830e+00]
 [-8.68657563e-01  2.64308260e+00]
 [-8.76019068e-01  2.65974490e+00]
 [-9.20188096e-01  2.67641260e+00]
 [-9.27549601e-01  2.69307280e+00]
 [-9.49634116e-01  2.70974370e+00]
 [-9.49634116e-01  2.72641460e+00]
 [-9.64357125e-01  2.74308270e+00]
 [-9.64357125e-01  2.75975230e+00]
 [-9.64357125e-01  2.77642220e+00]
 [-9.71718630e-01  2.79308060e+00]
 [-9.93803144e-01  2.80974910e+00]
 [-1.00000000e+00  2.82641540e+00]
 [-1.00000000e+00  2.84263780e+00]
 [-1.00000000e+00  2.85930310e+00]
 [-1.00000000e+00  2.87595560e+00]
 [-1.00000000e+00  2.89263030e+00]
 [-1.00000000e+00  2.90929160e+00]
 [-1.00000000e+00  2.92593750e+00]
 [-1.00000000e+00  2.94256850e+00]
 [-1.00000000e+00  2.95924960e+00]
 [-1.00000000e+00  2.97595590e+00]
 [-1.00000000e+00  2.99262360e+00]
 [-1.00000000e+00  3.00929810e+00]
 [-1.00000000e+00  3.02578040e+00]
 [-1.00000000e+00  3.04248350e+00]
 [-1.00000000e+00  3.05925560e+00]
 [-1.00000000e+00  3.07595710e+00]
 [-1.00000000e+00  3.09262220e+00]
 [-9.93803144e-01  3.10929290e+00]
 [-9.64357125e-01  3.12640860e+00]
 [-9.34911106e-01  3.14308730e+00]
 [-9.20188096e-01  3.15976920e+00]
 [-8.90742077e-01  3.17644400e+00]
 [-8.24488534e-01  3.19308740e+00]
 [-7.72958001e-01  3.20975540e+00]
 [-7.06704458e-01  3.22641620e+00]
 [-6.47812420e-01  3.24309420e+00]
 [-5.96281887e-01  3.25975700e+00]
 [-5.37389848e-01  3.27641890e+00]
 [-4.63774801e-01  3.29308390e+00]
 [-3.97521258e-01  3.30976030e+00]
 [-3.45990724e-01  3.32642820e+00]
 [-2.87098686e-01  3.34308870e+00]
 [-2.57652667e-01  3.35975660e+00]
 [-2.35568153e-01  3.37642600e+00]
 [-2.06122134e-01  3.39310000e+00]
 [-1.61953105e-01  3.40976810e+00]
 [-1.10422572e-01  3.42638870e+00]
 [-8.09765525e-02  3.44307900e+00]
 [-7.36150477e-02  3.45975600e+00]
 [-5.88920382e-02  3.47642640e+00]
 [-5.88920382e-02  3.49309020e+00]
 [-5.15305334e-02  3.50976500e+00]
 [-3.68075239e-02  3.52593270e+00]
 [-1.47230095e-02  3.54308960e+00]
 [ 0.00000000e+00  3.55976590e+00]
 [ 7.36150477e-03  3.57598410e+00]
 [ 7.36150477e-03  3.59310370e+00]
 [ 7.36150477e-03  3.60976490e+00]
 [ 7.36150477e-03  3.62642570e+00]
 [ 7.36150477e-03  3.64309920e+00]
 [ 7.36150477e-03  3.65975980e+00]
 [ 7.36150477e-03  3.67642650e+00]
 [ 7.36150477e-03  3.69310880e+00]
 [ 7.36150477e-03  3.70976980e+00]
 [ 7.36150477e-03  3.72638830e+00]
 [ 7.36150477e-03  3.74307980e+00]
 [ 7.36150477e-03  3.75976380e+00]
 [ 7.36150477e-03  3.77643090e+00]
 [ 7.36150477e-03  3.79309690e+00]
 [ 7.36150477e-03  3.80977000e+00]
 [ 7.36150477e-03  3.82644830e+00]
 [ 7.36150477e-03  3.84264130e+00]
 [ 7.36150477e-03  3.85932170e+00]
 [ 7.36150477e-03  3.87595760e+00]
 [ 7.36150477e-03  3.89263410e+00]
 [ 7.36150477e-03  3.90930550e+00]
 [ 7.36150477e-03  3.92593330e+00]
 [ 6.62535429e-02  3.94263620e+00]
 [ 7.36150477e-02  3.95975740e+00]
 [ 7.36150477e-02  3.97643430e+00]
 [ 7.36150477e-02  3.99309940e+00]
 [ 7.36150477e-02  4.00977290e+00]
 [ 7.36150477e-02  4.02644590e+00]
 [ 7.36150477e-02  4.04310130e+00]
 [ 7.36150477e-02  4.05977770e+00]
 [ 7.36150477e-02  4.07643820e+00]
 [ 7.36150477e-02  4.09310370e+00]
 [ 7.36150477e-02  4.10975410e+00]
 [ 7.36150477e-02  4.12643340e+00]
 [ 7.36150477e-02  4.14310440e+00]
 [ 7.36150477e-02  4.15976580e+00]
 [ 7.36150477e-02  4.17644060e+00]
 [ 7.36150477e-02  4.19310860e+00]
 [ 7.36150477e-02  4.20976830e+00]
 [ 7.36150477e-02  4.22645210e+00]
 [ 7.36150477e-02  4.24264320e+00]
 [ 7.36150477e-02  4.25930810e+00]
 [ 7.36150477e-02  4.27596660e+00]
 [ 7.36150477e-02  4.29264200e+00]
 [ 7.36150477e-02  4.30930720e+00]
 [ 7.36150477e-02  4.32593480e+00]
 [ 7.36150477e-02  4.34264430e+00]
 [ 7.36150477e-02  4.35930880e+00]
 [ 7.36150477e-02  4.37597890e+00]
 [ 7.36150477e-02  4.39264310e+00]
 [ 7.36150477e-02  4.40931090e+00]
 [ 7.36150477e-02  4.42595820e+00]
 [ 7.36150477e-02  4.44264830e+00]
 [ 7.36150477e-02  4.45931470e+00]
 [ 7.36150477e-02  4.47583740e+00]
 [ 7.36150477e-02  4.49250390e+00]
 [ 7.36150477e-02  4.50917890e+00]
 [ 7.36150477e-02  4.52585250e+00]
 [ 7.36150477e-02  4.54264460e+00]
 [ 7.36150477e-02  4.55925930e+00]
 [ 7.36150477e-02  4.57596800e+00]
 [ 7.36150477e-02  4.59264540e+00]
 [ 7.36150477e-02  4.60931270e+00]
 [ 7.36150477e-02  4.62592770e+00]
 [ 7.36150477e-02  4.64264300e+00]
 [ 7.36150477e-02  4.65931330e+00]
 [ 7.36150477e-02  4.67597260e+00]
 [ 7.36150477e-02  4.69264580e+00]
 [ 7.36150477e-02  4.70931440e+00]
 [ 7.36150477e-02  4.72593310e+00]
 [ 7.36150477e-02  4.74264840e+00]
 [ 7.36150477e-02  4.75931790e+00]
 [ 7.36150477e-02  4.77597520e+00]
 [ 7.36150477e-02  4.79264820e+00]
 [ 7.36150477e-02  4.80931540e+00]
 [ 7.36150477e-02  4.82587990e+00]
 [ 7.36150477e-02  4.84264690e+00]
 [ 7.36150477e-02  4.85915920e+00]
 [ 7.36150477e-02  4.87597210e+00]
 [ 7.36150477e-02  4.89265070e+00]
 [ 7.36150477e-02  4.90931650e+00]
 [ 7.36150477e-02  4.92594780e+00]
 [ 7.36150477e-02  4.94266170e+00]
 [ 7.36150477e-02  4.95925600e+00]
 [ 7.36150477e-02  4.97597540e+00]
 [ 7.36150477e-02  4.99266380e+00]
 [ 7.36150477e-02  5.00932060e+00]
 [ 7.36150477e-02  5.02594870e+00]
 [ 7.36150477e-02  5.04266220e+00]
 [ 7.36150477e-02  5.05927430e+00]
 [ 7.36150477e-02  5.07597660e+00]
 [ 7.36150477e-02  5.09265390e+00]
 [ 7.36150477e-02  5.10931070e+00]
 [ 7.36150477e-02  5.12595080e+00]
 [ 7.36150477e-02  5.14265190e+00]
 [ 7.36150477e-02  5.15931830e+00]
 [ 7.36150477e-02  5.17598070e+00]
 [ 7.36150477e-02  5.19266160e+00]
 [ 7.36150477e-02  5.20931360e+00]
 [ 7.36150477e-02  5.22581250e+00]
 [ 7.36150477e-02  5.24252160e+00]
 [ 7.36150477e-02  5.25927690e+00]
 [ 7.36150477e-02  5.27597780e+00]
 [ 7.36150477e-02  5.29265710e+00]
 [ 7.36150477e-02  5.30931250e+00]
 [ 7.36150477e-02  5.32593850e+00]
 [ 7.36150477e-02  5.34265450e+00]
 [ 7.36150477e-02  5.35932680e+00]
 [ 7.36150477e-02  5.37598850e+00]
 [ 7.36150477e-02  5.39265790e+00]
 [ 7.36150477e-02  5.40931650e+00]
 [ 7.36150477e-02  5.42595380e+00]
 [ 7.36150477e-02  5.44266530e+00]
 [ 7.36150477e-02  5.45932440e+00]
 [ 7.36150477e-02  5.47598230e+00]
 [ 7.36150477e-02  5.49265940e+00]
 [ 7.36150477e-02  5.50933260e+00]
 [ 7.36150477e-02  5.52595500e+00]
 [ 7.36150477e-02  5.54266230e+00]
 [ 7.36150477e-02  5.55932590e+00]
 [ 7.36150477e-02  5.57598950e+00]
 [ 7.36150477e-02  5.59266140e+00]
 [ 7.36150477e-02  5.60932660e+00]
 [ 7.36150477e-02  5.62581780e+00]
 [ 7.36150477e-02  5.64252280e+00]
 [ 7.36150477e-02  5.65932610e+00]
 [ 7.36150477e-02  5.67595900e+00]
 [ 7.36150477e-02  5.69266270e+00]
 [ 7.36150477e-02  5.70927310e+00]
 [ 7.36150477e-02  5.72595640e+00]
 [ 7.36150477e-02  5.74262720e+00]
 [ 7.36150477e-02  5.75932960e+00]
 [ 7.36150477e-02  5.77598690e+00]
 [ 7.36150477e-02  5.79266440e+00]
 [ 7.36150477e-02  5.80931820e+00]
 [ 7.36150477e-02  5.82595940e+00]
 [ 7.36150477e-02  5.84266300e+00]
 [ 7.36150477e-02  5.85922540e+00]
 [ 7.36150477e-02  5.87599320e+00]
 [ 7.36150477e-02  5.89266840e+00]
 [ 7.36150477e-02  5.90932430e+00]
 [ 7.36150477e-02  5.92595980e+00]
 [ 7.36150477e-02  5.94266950e+00]
 [ 7.36150477e-02  5.95934270e+00]
 [ 7.36150477e-02  5.97594300e+00]
 [ 7.36150477e-02  5.99271410e+00]
 [ 7.36150477e-02  6.00934000e+00]
 [ 7.36150477e-02  6.02582570e+00]
 [ 7.36150477e-02  6.04252930e+00]]",32,A,non_immersive,No,8,2024-05-03_11h43.52.467,Experiment_VR_non_immersive,59.988398225277415,
4,../amsterdam_dynamic_facial_expression_set/F01-Disgust-Face Forward.mp4,arousal,right,HV-LA,direct,0,,,,,0,0,0,1,"[[ 0.          0.021361  ]
 [ 0.          0.0378224 ]
 [ 0.          0.054433  ]
 [ 0.          0.0715037 ]
 [ 0.          0.0878    ]
 [ 0.          0.105313  ]
 [ 0.          0.1211332 ]
 [ 0.          0.138614  ]
 [ 0.          0.154336  ]
 [ 0.          0.1719966 ]
 [ 0.          0.1877768 ]
 [ 0.          0.2052918 ]
 [ 0.          0.2211324 ]
 [ 0.          0.23867   ]
 [ 0.          0.2544548 ]
 [ 0.          0.2719683 ]
 [ 0.          0.2877659 ]
 [ 0.          0.3052399 ]
 [ 0.          0.320997  ]
 [ 0.          0.3384896 ]
 [ 0.          0.3543479 ]
 [ 0.          0.3719279 ]
 [ 0.          0.3877665 ]
 [ 0.          0.4052385 ]
 [ 0.          0.4211467 ]
 [ 0.          0.4386416 ]
 [ 0.          0.4543326 ]
 [ 0.          0.4719832 ]
 [ 0.          0.4877682 ]
 [ 0.          0.5052954 ]
 [ 0.          0.5211395 ]
 [ 0.          0.5386745 ]
 [ 0.          0.5544382 ]
 [ 0.          0.571939  ]
 [ 0.          0.5877709 ]
 [ 0.          0.6052475 ]
 [ 0.          0.6210868 ]
 [ 0.          0.6384721 ]
 [ 0.          0.6544575 ]
 [ 0.          0.6719585 ]
 [ 0.          0.6877938 ]
 [ 0.          0.705122  ]
 [ 0.          0.7211413 ]
 [ 0.          0.7384878 ]
 [ 0.07361505  0.7543452 ]
 [ 0.08833806  0.7718311 ]
 [ 0.08833806  0.7877769 ]
 [ 0.08833806  0.8053072 ]
 [ 0.09569956  0.8211536 ]
 [ 0.1545916   0.8386398 ]
 [ 0.20612213  0.8544665 ]
 [ 0.24292966  0.8719289 ]
 [ 0.27237568  0.8878034 ]
 [ 0.3018217   0.9053068 ]
 [ 0.34599072  0.9211573 ]
 [ 0.39752126  0.9387873 ]
 [ 0.44169029  0.954359  ]
 [ 0.4564133   0.9717819 ]
 [ 0.49322082  0.9876345 ]
 [ 0.58155888  1.0053178 ]
 [ 0.66989693  1.0211466 ]
 [ 0.78031951  1.0386286 ]
 [ 0.85393455  1.0544672 ]
 [ 0.86129606  1.0719661 ]
 [ 0.86865756  1.0878187 ]
 [ 0.87601907  1.1053225 ]
 [ 0.89074208  1.12115   ]
 [ 0.90546509  1.1384962 ]
 [ 0.91282659  1.1544487 ]
 [ 0.9201881   1.1719765 ]
 [ 0.9275496   1.1877084 ]
 [ 0.95699562  1.2053043 ]
 [ 0.98644164  1.2211647 ]
 [ 1.          1.2386283 ]
 [ 1.          1.2544862 ]
 [ 1.          1.2720041 ]
 [ 1.          1.2878146 ]
 [ 1.          1.3053255 ]
 [ 1.          1.3211439 ]
 [ 1.          1.3386943 ]
 [ 1.          1.3544692 ]
 [ 1.          1.3717523 ]
 [ 1.          1.3877183 ]
 [ 1.          1.405272  ]
 [ 1.          1.4211516 ]
 [ 1.          1.4386581 ]
 [ 1.          1.4543477 ]
 [ 1.          1.4720026 ]
 [ 1.          1.4878046 ]
 [ 0.95699562  1.5053038 ]
 [ 0.91282659  1.5211391 ]
 [ 0.86129606  1.5385803 ]
 [ 0.78768101  1.5543636 ]
 [ 0.71406596  1.5719405 ]
 [ 0.63308941  1.5877848 ]
 [ 0.53002834  1.6053146 ]
 [ 0.44905179  1.6211642 ]
 [ 0.39752126  1.6386419 ]
 [ 0.35335223  1.6544778 ]
 [ 0.29446019  1.6719589 ]
 [ 0.25029116  1.6878094 ]
 [ 0.21348364  1.7052421 ]
 [ 0.18403762  1.7211239 ]
 [ 0.1472301   1.7385013 ]
 [ 0.10306107  1.7544795 ]
 [ 0.07361505  1.7720023 ]
 [ 0.04416903  1.7877904 ]
 [-0.0073615   1.8053162 ]
 [-0.05153053  1.8211705 ]
 [-0.06625354  1.8386373 ]
 [-0.08833806  1.8544993 ]
 [-0.10306107  1.8719637 ]
 [-0.1472301   1.8877984 ]
 [-0.18403762  1.905335  ]
 [-0.23556815  1.9211742 ]
 [-0.26501417  1.9386175 ]
 [-0.29446019  1.9544834 ]
 [-0.32390621  1.971945  ]
 [-0.33862922  1.9878313 ]
 [-0.34599072  2.0053073 ]
 [-0.34599072  2.0211719 ]
 [-0.36071373  2.0386327 ]
 [-0.39015975  2.0545002 ]
 [-0.41224427  2.0719754 ]
 [-0.44169029  2.0877938 ]
 [-0.44905179  2.10532   ]
 [-0.44905179  2.1210195 ]
 [-0.44905179  2.1385141 ]
 [-0.4564133   2.1544842 ]
 [-0.47849781  2.1719947 ]
 [-0.52266684  2.1878165 ]
 [-0.57419737  2.2053315 ]
 [-0.6110049   2.2211607 ]
 [-0.65517392  2.2386285 ]
 [-0.71406596  2.2544636 ]
 [-0.75087349  2.2720202 ]
 [-0.80240402  2.2877978 ]
 [-0.83921154  2.3053182 ]
 [-0.87601907  2.3211881 ]
 [-0.91282659  2.3385004 ]
 [-0.94227261  2.3545124 ]
