id,movie_path,dimension,hand,stimulus_type,order_emojis_slider,block,practice.thisRepN,practice.thisTrialN,practice.thisN,practice.thisIndex,trials.thisRepN,trials.thisTrialN,trials.thisN,trials.thisIndex,continuous_annotation,video_duration,valence_value,arousal_value,preference_value,engagement_value,familiarity_value,checkbox_Neutral,checkbox_Asco,checkbox_Felicidad,checkbox_Sorpresa,checkbox_Ira,checkbox_Miedo,checkbox_Tristeza,continuous_annotation_luminance,stim_value_green,stim_value,ID,Sesion,Tarea,Consumo de sustancias psicoactivas en las últimas 24 hs,Horas de sueño la noche anterior,date,exp_name,frame_rate,
99,../amsterdam_dynamic_facial_expression_set/F01-Fear-Face Forward.mp4,valence,right,LV-HA,direct,-1,0,0,0,0,,,,,"[[0.0, 0.014089300006162375], [0.0, 0.030618900011177175], [0.0, 0.04725899999903049], [0.0, 0.06389309999940451], [0.0, 0.08061950000410434], [0.0, 0.0972885000082897], [0.0, 0.11390430000028573], [0.0, 0.1305836000101408], [0.0, 0.14751080000132788], [0.0, 0.16389900000649504], [0.0, 0.18059260000882205], [0.0, 0.1973370000050636], [0.0, 0.2137871000013547], [0.0, 0.23057430000335444], [0.0, 0.24726400000508875], [0.0, 0.2638090000109514], [0.0, 0.2806046000041533], [0.0, 0.29724549999809824], [0.0, 0.31391070000245236], [0.0, 0.3305924000014784], [0.0, 0.34722720000718255], [0.0073615047716684145, 0.3640011000097729], [0.0073615047716684145, 0.3810809999995399], [0.0073615047716684145, 0.3973690999991959], [0.014723009543337051, 0.41381870000623167], [0.014723009543337051, 0.4306214000098407], [0.014723009543337051, 0.4472791000007419], [0.04416902863001093, 0.4640011000010418], [0.1251455811183646, 0.48057080000580754], [0.3754367433550936, 0.49727410000923555], [0.5373898483318005, 0.5139223000005586], [0.6404509151351594, 0.53061400000297], [0.691981448536839, 0.5472818999987794], [0.691981448536839, 0.5637646000104723], [0.7067044580801758, 0.5804519000084838], [0.7361504771668499, 0.5975064000085695], [0.8097655248835349, 0.61387349999859], [0.8686575630568831, 0.6306916000030469], [0.9128265916868941, 0.6472398000041721], [0.9275496012302309, 0.6637525999976788], [0.9349111060018995, 0.6804486000037286], [0.971718629860242, 0.697309100010898], [0.9938031441752475, 0.7139066000090679], [1, 0.7299477000051411], [1, 0.7467625999997836], [1, 0.7632506000081776], [1, 0.779948700001114], [1, 0.7967828000109876], [1, 0.8134332000045106], [1, 0.8300938000029419], [1, 0.8467522999999346], [1, 0.8634153000020888], [1, 0.8800992000033148], [1, 0.8968026000075042], [1, 0.913410200009821], [1, 0.9300986000016565], [1, 0.9467828000051668], [1, 0.963256300005014], [1, 0.9799502000096254], [1, 0.9967888000101084], [1, 1.0134165000054054], [0.971718629860242, 1.030714499996975], [0.8907420773718884, 1.0472802000003867], [0.7950425153401981, 1.0638382000033744], [0.7067044580801758, 1.0805764999968233], [0.5521128578751373, 1.0972548999998253], [0.43432878152844157, 1.1139531000080751], [0.2797371813234031, 1.1305928000074346], [0.11042257157502755, 1.1471973000006983], [-0.03680752385834252, 1.1637885000091046], [-0.17667611452004406, 1.180458800008637], [-0.30918320041007696, 1.1971668000041973], [-0.46377480061511556, 1.2139230000029784], [-0.6698969342218335, 1.2305811999976868], [-0.853934553513546, 1.2472759000083897], [-0.9938031441752475, 1.2639223000005586], [-1, 1.2800949000084074], [-1, 1.2967411999998149], [-1, 1.3134257000056095], [-1, 1.330074900004547], [-1, 1.3467760000057751], [-1, 1.363471100004972], [-1, 1.3800966999988304], [-1, 1.3967508000059752], [-1, 1.413267600000836], [-1, 1.4299463000061223], [-1, 1.4465955000050599], [-1, 1.4633278000110295], [-1, 1.4801076000003377], [-1, 1.496810299999197], [-1, 1.5134457000094699], [-1, 1.5300870000064606], [-1, 1.546778500007349], [-1, 1.563442300001043], [-1, 1.5800542000069981], [-1, 1.59675789999892], [-1, 1.6134446000069147], [-1, 1.6301009000017075], [-1, 1.6467766999994637], [-1, 1.6634390999970492], [-1, 1.6801374000060605], [-1, 1.6967909000086365], [-1, 1.7134322000056272], [-1, 1.7301314000069397], [-1, 1.7467410000099335], [-1, 1.7634302000078605], [-1, 1.7801041000057012], [-1, 1.796798299998045], [-1, 1.8132710000063526], [-1, 1.8299977999995463], [-1, 1.8467824999970617]]",0.0,None,None,None,None,None,False,False,False,False,False,False,False,"[[0.0, 16.391181099999812], [0.0, 16.398735700000543], [0.0, 16.415147400010028], [0.0, 16.43180730000313], [0.0, 16.44850410000072], [0.0, 16.46509860000515], [0.0, 16.481811500008916], [0.0, 16.4985977000033], [0.0, 16.5152373000019], [0.0, 16.531861000010394], [0.0, 16.548447699999087], [0.0, 16.56508820000454], [0.0, 16.58174650000001], [0.0, 16.59852210000099], [0.0, 16.615094000007957], [0.0, 16.63174720000825], [0.0, 16.64842490000592], [0.0, 16.665099600009853], [0.0, 16.681768700000248], [0.0, 16.69850800000131], [0.0, 16.715140000000247], [0.0, 16.731739399998332], [0.0, 16.748459599999478], [0.0, 16.765068100008648], [0.0, 16.781810200001928], [0.0, 16.798421700004837], [0.0, 16.81509630000801], [0.0, 16.83185990000493], [0.0, 16.848518500002683], [0.0, 16.865214700010256], [0.0, 16.881887700001244], [0.0, 16.898522500006948], [0.0, 16.914987399999518], [0.0, 16.931758000006084], [0.0, 16.948553299997002], [0.0, 16.965102700007265], [0.0, 16.981786900010775], [0.0, 16.99839740000607], [0.0, 17.015076800002134], [0.0, 17.031715700009954], [0.0, 17.048499399999855], [0.0, 17.065115999997943], [0.0, 17.081777200000943], [0.0, 17.098475699996925], [0.0, 17.115126600008807], [0.0, 17.131801700001233], [0.0, 17.14846630000102], [0.0, 17.16512689999945], [0.0, 17.181801200000336], [0.0, 17.198452099997667], [0.0, 17.21515050000744], [0.0, 17.231808500000625], [0.0, 17.24859820000711], [0.0, 17.26520010000968], [0.0, 17.281864600008703], [0.0, 17.29847520000476], [0.0, 17.315090700009023]]","[[140.0, 7.599999662488699e-06], [140.0, 0.008097300000372343], [140.0, 0.024763900000834838], [140.0, 0.04142170000704937], [140.0, 0.05807480000657961], [140.0, 0.07475250000425149], [140.0, 0.09142240000073798], [140.0, 0.1080223000026308], [140.0, 0.12475909999920987], [140.0, 0.14138020000245888], [140.0, 0.15806400000292342], [140.0, 0.17471350000414532], [140.0, 0.19139770000765566], [140.0, 0.2081008999957703], [140.0, 0.22478530000080355], [140.0, 0.2413864999980433], [140.0, 0.25806700000248384], [140.0, 0.2747514000075171], [140.0, 0.29141629999503493], [140.0, 0.30810520000522956], [140.0, 0.3247590999962995], [140.0, 0.3413470999948913], [140.0, 0.35806939999747556], [140.0, 0.3746914000075776], [140.0, 0.3914199999999255], [140.0, 0.408030200007488], [140.0, 0.42475109999941196], [140.0, 0.44143789999361616], [140.0, 0.4580837999965297], [140.0, 0.4747633999941172], [140.0, 0.4914327000005869], [140.0, 0.5080956000019796], [140.0, 0.5246248000039486], [140.0, 0.5413668999972288], [140.0, 0.5579768000025069], [140.0, 0.5747164000058547], [140.0, 0.5914367999939714], [140.0, 0.6080520999967121], [140.0, 0.6247072999976808], [140.0, 0.6413096000032965], [140.0, 0.6580737000040244], [140.0, 0.6747704000008525], [140.0, 0.6914274000009755], [140.0, 0.7081128999998327], [140.0, 0.7247711999953026], [140.0, 0.7414481000014348], [140.0, 0.7580767000035848], [140.0, 0.7747800000070129], [140.0, 0.7914151000004495], [140.0, 0.8080692999938037], [140.0, 0.8247685999958776], [140.0, 0.841426600003615], [140.0, 0.8580784999940079], [140.0, 0.8747582000069087], [140.0, 0.8913865000067744], [140.0, 0.9080849000019953], [140.0, 0.924708799997461]]","[[140.0, 7.599999662488699e-06], [140.0, 0.008097300000372343], [140.0, 0.024763900000834838], [140.0, 0.04142170000704937], [140.0, 0.05807480000657961], [140.0, 0.07475250000425149], [140.0, 0.09142240000073798], [140.0, 0.1080223000026308], [140.0, 0.12475909999920987], [140.0, 0.14138020000245888], [140.0, 0.15806400000292342], [140.0, 0.17471350000414532], [140.0, 0.19139770000765566], [140.0, 0.2081008999957703], [140.0, 0.22478530000080355], [140.0, 0.2413864999980433], [140.0, 0.25806700000248384], [140.0, 0.2747514000075171], [140.0, 0.29141629999503493], [140.0, 0.30810520000522956], [140.0, 0.3247590999962995], [140.0, 0.3413470999948913], [140.0, 0.35806939999747556], [140.0, 0.3746914000075776], [140.0, 0.3914199999999255], [140.0, 0.408030200007488], [140.0, 0.42475109999941196], [140.0, 0.44143789999361616], [140.0, 0.4580837999965297], [140.0, 0.4747633999941172], [140.0, 0.4914327000005869], [140.0, 0.5080956000019796], [140.0, 0.5246248000039486], [140.0, 0.5413668999972288], [140.0, 0.5579768000025069], [140.0, 0.5747164000058547], [140.0, 0.5914367999939714], [140.0, 0.6080520999967121], [140.0, 0.6247072999976808], [140.0, 0.6413096000032965], [140.0, 0.6580737000040244], [140.0, 0.6747704000008525], [140.0, 0.6914274000009755], [140.0, 0.7081128999998327], [140.0, 0.7247711999953026], [140.0, 0.7414481000014348], [140.0, 0.7580767000035848], [140.0, 0.7747800000070129], [140.0, 0.7914151000004495], [140.0, 0.8080692999938037], [140.0, 0.8247685999958776], [140.0, 0.841426600003615], [140.0, 0.8580784999940079], [140.0, 0.8747582000069087], [140.0, 0.8913865000067744], [140.0, 0.9080849000019953], [140.0, 0.924708799997461]]",22,A,non_immersive,No,8,2024-04-26_13h02.42.344,Experiment_VR_non_immersive,60.01125811041845,
1,../amsterdam_dynamic_facial_expression_set/F01-Disgust-Face Forward.mp4,arousal,right,HV-LA,direct,0,,,,,0,0,0,0,"[[ 0.          0.0144755 ]
 [ 0.          0.0311411 ]
 [ 0.          0.0476479 ]
 [ 0.          0.0647007 ]
 [ 0.          0.0809565 ]
 [ 0.          0.0985938 ]
 [ 0.          0.1142801 ]
 [ 0.          0.1318137 ]
 [ 0.          0.1476342 ]
 [ 0.          0.1652668 ]
 [ 0.          0.1809551 ]
 [ 0.          0.1985763 ]
 [ 0.          0.214266  ]
 [ 0.          0.2319639 ]
 [ 0.          0.2477011 ]
 [ 0.          0.2651968 ]
 [ 0.          0.2809728 ]
 [ 0.          0.2984829 ]
 [ 0.          0.3142542 ]
 [ 0.          0.3318257 ]
 [ 0.          0.3475806 ]
 [ 0.          0.3651942 ]
 [ 0.          0.3809628 ]
 [ 0.          0.3985569 ]
 [ 0.          0.414282  ]
 [ 0.          0.4318399 ]
 [ 0.          0.4476047 ]
 [ 0.          0.4651519 ]
 [ 0.          0.4809274 ]
 [ 0.          0.4985117 ]
 [ 0.          0.5143005 ]
 [ 0.          0.5318871 ]
 [ 0.          0.5475959 ]
 [ 0.          0.565181  ]
 [ 0.          0.5809332 ]
 [ 0.          0.5985592 ]
 [ 0.          0.6143126 ]
 [ 0.          0.631799  ]
 [ 0.          0.6474683 ]
 [ 0.          0.6652308 ]
 [ 0.          0.6809612 ]
 [ 0.          0.6985116 ]
 [ 0.          0.7142718 ]
 [ 0.          0.7318374 ]
 [ 0.04416903  0.7476151 ]
 [ 0.11042257  0.765214  ]
 [ 0.1619531   0.7814096 ]
 [ 0.22820665  0.7990066 ]
 [ 0.33126771  0.8144373 ]
 [ 0.41224427  0.8322931 ]
 [ 0.50058232  0.8480242 ]
 [ 0.53738985  0.8657274 ]
 [ 0.58892038  0.881072  ]
 [ 0.65517392  0.8990174 ]
 [ 0.67725844  0.9148045 ]
 [ 0.70670446  0.9319784 ]
 [ 0.72878897  0.9476516 ]
 [ 0.7655965   0.9651993 ]
 [ 0.80240402  0.9814415 ]
 [ 0.81712703  0.9986312 ]
 [ 0.84657305  1.0144601 ]
 [ 0.85393455  1.031962  ]
 [ 0.89810358  1.0477633 ]
 [ 0.9275496   1.065649  ]
 [ 0.96435713  1.0810698 ]
 [ 1.          1.0989751 ]
 [ 1.          1.11448   ]
 [ 1.          1.1319965 ]
 [ 1.          1.1475984 ]
 [ 1.          1.1651998 ]
 [ 1.          1.1811675 ]
 [ 1.          1.1985204 ]
 [ 1.          1.2142709 ]
 [ 1.          1.2318441 ]
 [ 1.          1.2476085 ]
 [ 1.          1.265213  ]
 [ 1.          1.2809686 ]
 [ 1.          1.2985569 ]
 [ 1.          1.3142813 ]
 [ 1.          1.3318236 ]
 [ 1.          1.3476983 ]
 [ 1.          1.3652047 ]
 [ 0.97171863  1.3810083 ]
 [ 0.88338057  1.3986384 ]
 [ 0.80240402  1.4147923 ]
 [ 0.772958    1.4323055 ]
 [ 0.72878897  1.44771   ]
 [ 0.68461994  1.465713  ]
 [ 0.63308941  1.4810852 ]
 [ 0.53738985  1.4990088 ]
 [ 0.4564133   1.5148022 ]
 [ 0.39015975  1.5319724 ]
 [ 0.3091832   1.5478889 ]
 [ 0.19139912  1.565477  ]
 [ 0.07361505  1.5813944 ]
 [ 0.01472301  1.5990244 ]
 [-0.02208451  1.614708  ]
 [-0.05153053  1.6319731 ]
 [-0.07361505  1.6477648 ]
 [-0.08833806  1.6657375 ]
 [-0.11042257  1.6812495 ]
 [-0.16931461  1.6987857 ]
 [-0.19876063  1.7147959 ]
 [-0.22820665  1.7319959 ]
 [-0.22820665  1.74764   ]
 [-0.22820665  1.7650548 ]
 [-0.27237568  1.7811274 ]
 [-0.37543674  1.799034  ]
 [-0.4637748   1.8148106 ]
 [-0.60364339  1.8322717 ]
 [-0.72142747  1.8479659 ]
 [-0.82448853  1.8656846 ]
 [-0.90546509  1.8814607 ]
 [-0.96435713  1.8989678 ]
 [-0.97908013  1.9147983 ]
 [-1.          1.9318719 ]
 [-1.          1.9476237 ]
 [-1.          1.9651568 ]
 [-1.          1.9810717 ]
 [-1.          1.9987349 ]
 [-1.          2.014505  ]
 [-1.          2.0319573 ]
 [-1.          2.0477098 ]
 [-1.          2.0651934 ]
 [-1.          2.0809536 ]
 [-1.          2.0987214 ]
 [-1.          2.1144627 ]
 [-1.          2.1317494 ]
 [-1.          2.1476109 ]
 [-1.          2.1651955 ]
 [-1.          2.1809782 ]
 [-1.          2.1985341 ]
 [-1.          2.2144985 ]
 [-1.          2.2319993 ]
 [-1.          2.2477874 ]
 [-1.          2.2653745 ]
 [-1.          2.2810962 ]
 [-1.          2.2988615 ]
 [-1.          2.3144948 ]
 [-1.          2.3320179 ]
 [-1.          2.3476467 ]
 [-0.96435713  2.3651865 ]
 [-0.89074208  2.3810946 ]
 [-0.87601907  2.3989886 ]
 [-0.84657305  2.4144664 ]
 [-0.79504252  2.432301  ]
 [-0.75087349  2.4477717 ]
 [-0.68461994  2.4652965 ]
 [-0.64045092  2.4814417 ]
 [-0.57419737  2.4990504 ]
 [-0.55211286  2.5145075 ]
 [-0.52266684  2.5319916 ]
 [-0.50794383  2.5479529 ]
 [-0.48585931  2.5651613 ]
 [-0.44905179  2.5810997 ]
 [-0.41960577  2.5990146 ]
 [-0.40488276  2.6144476 ]
 [-0.39015975  2.6320291 ]
 [-0.36071373  2.6479404 ]
 [-0.35335223  2.6654218 ]
 [-0.34599072  2.6814403 ]
 [-0.33862922  2.6985838 ]
 [-0.31654471  2.7144982 ]
 [-0.29446019  2.7319752 ]
 [-0.26501417  2.7476178 ]
 [-0.24292966  2.7651812 ]
 [-0.22820665  2.7814515 ]
 [-0.22084514  2.798742  ]
 [-0.20612213  2.8144652 ]
 [-0.16931461  2.8319797 ]
 [-0.1545916   2.8478092 ]
 [-0.13986859  2.8656614 ]
 [-0.13250709  2.8810178 ]
 [-0.12514558  2.8987289 ]
 [-0.11042257  2.9144432 ]
 [-0.11042257  2.9317969 ]
 [-0.10306107  2.9477971 ]
 [-0.09569956  2.9653927 ]
 [-0.08833806  2.9811271 ]
 [-0.08097655  2.9987051 ]
 [-0.06625354  3.0144796 ]
 [-0.05889204  3.0319369 ]
 [-0.04416903  3.0478168 ]
 [-0.02208451  3.065624  ]
 [-0.0073615   3.0811313 ]
 [ 0.0073615   3.0987483 ]
 [ 0.0073615   3.1143134 ]
 [ 0.0073615   3.1318185 ]
 [ 0.01472301  3.1476855 ]
 [ 0.01472301  3.1652165 ]
 [ 0.02944602  3.1811349 ]
 [ 0.03680752  3.1987503 ]
 [ 0.04416903  3.2144622 ]
 [ 0.04416903  3.2319128 ]
 [ 0.04416903  3.2476508 ]
 [ 0.04416903  3.2651945 ]
 [ 0.04416903  3.2809727 ]
 [ 0.04416903  3.2985606 ]
 [ 0.04416903  3.3143126 ]
 [ 0.04416903  3.3318572 ]
 [ 0.04416903  3.3476923 ]
 [ 0.04416903  3.3652412 ]
 [ 0.04416903  3.3809308 ]
 [ 0.04416903  3.3984892 ]
 [ 0.04416903  3.4143027 ]
 [ 0.04416903  3.4318677 ]
 [ 0.04416903  3.4476602 ]
 [ 0.04416903  3.4652393 ]
 [ 0.04416903  3.4809753 ]
 [ 0.04416903  3.4985843 ]
 [ 0.04416903  3.5143203 ]
 [ 0.04416903  3.5318691 ]
 [ 0.04416903  3.5476423 ]
 [ 0.04416903  3.5652263 ]
 [ 0.04416903  3.5809745 ]
 [ 0.04416903  3.5985383 ]
 [ 0.04416903  3.6142966 ]
 [ 0.04416903  3.6318756 ]
 [ 0.04416903  3.6475612 ]
 [ 0.04416903  3.6652448 ]
 [ 0.04416903  3.6810557 ]
 [ 0.04416903  3.698412  ]
 [ 0.04416903  3.7143337 ]
 [ 0.04416903  3.7318572 ]
 [ 0.04416903  3.7476375 ]
 [ 0.04416903  3.7652272 ]
 [ 0.04416903  3.7809786 ]
 [ 0.04416903  3.7985594 ]
 [ 0.04416903  3.814308  ]
 [ 0.04416903  3.8319109 ]
 [ 0.04416903  3.8476343 ]
 [ 0.04416903  3.8652122 ]
 [ 0.04416903  3.8810193 ]
 [ 0.04416903  3.8985592 ]
 [ 0.04416903  3.91432   ]
 [ 0.04416903  3.9318418 ]
 [ 0.04416903  3.9476968 ]
 [ 0.04416903  3.9652182 ]
 [ 0.04416903  3.9810513 ]
 [ 0.04416903  3.9985837 ]
 [ 0.04416903  4.0143712 ]
 [ 0.04416903  4.0318    ]
 [ 0.04416903  4.0476014 ]
 [ 0.04416903  4.0652607 ]
 [ 0.04416903  4.0810002 ]
 [ 0.04416903  4.0985551 ]
 [ 0.04416903  4.1143678 ]
 [ 0.04416903  4.1319189 ]
 [ 0.04416903  4.1476554 ]
 [ 0.04416903  4.1652219 ]
 [ 0.04416903  4.1809878 ]
 [ 0.04416903  4.1985504 ]
 [ 0.04416903  4.2143463 ]
 [ 0.04416903  4.2318619 ]
 [ 0.04416903  4.2476211 ]
 [ 0.04416903  4.2652221 ]
 [ 0.04416903  4.2810179 ]
 [ 0.04416903  4.2985693 ]
 [ 0.04416903  4.3143359 ]
 [ 0.04416903  4.3318856 ]
 [ 0.04416903  4.3476777 ]
 [ 0.04416903  4.3651744 ]
 [ 0.04416903  4.3810158 ]
 [ 0.04416903  4.398579  ]
 [ 0.04416903  4.4143148 ]
 [ 0.04416903  4.4319248 ]
 [ 0.04416903  4.4476362 ]
 [ 0.04416903  4.4652152 ]
 [ 0.04416903  4.4809915 ]
 [ 0.04416903  4.4985739 ]
 [ 0.04416903  4.514338  ]
 [ 0.04416903  4.5318709 ]
 [ 0.04416903  4.5476715 ]
 [ 0.04416903  4.5652304 ]
 [ 0.04416903  4.5810694 ]
 [ 0.04416903  4.5986344 ]
 [ 0.04416903  4.6143901 ]
 [ 0.04416903  4.631862  ]
 [ 0.04416903  4.6475276 ]
 [ 0.04416903  4.6652328 ]
 [ 0.04416903  4.6809918 ]
 [ 0.04416903  4.6985702 ]
 [ 0.04416903  4.7143369 ]
 [ 0.04416903  4.7319015 ]
 [ 0.04416903  4.7477066 ]
 [ 0.04416903  4.7652238 ]
 [ 0.04416903  4.7809921 ]
 [ 0.04416903  4.7985767 ]
 [ 0.04416903  4.8143208 ]
 [ 0.04416903  4.8318812 ]
 [ 0.04416903  4.8476631 ]
 [ 0.04416903  4.8652331 ]
 [ 0.04416903  4.8810205 ]
 [ 0.04416903  4.8985799 ]
 [ 0.04416903  4.9143771 ]
 [ 0.04416903  4.9317967 ]
 [ 0.04416903  4.9476039 ]
 [ 0.04416903  4.9652322 ]
 [ 0.04416903  4.9809014 ]
 [ 0.04416903  4.9985863 ]
 [ 0.04416903  5.0143658 ]
 [ 0.04416903  5.0319304 ]
 [ 0.04416903  5.0477033 ]
 [ 0.04416903  5.0652172 ]
 [ 0.04416903  5.0811326 ]
 [ 0.04416903  5.098619  ]
 [ 0.04416903  5.1143571 ]
 [ 0.04416903  5.1318363 ]
 [ 0.04416903  5.1476749 ]
 [ 0.04416903  5.1651939 ]
 [ 0.04416903  5.1809944 ]
 [ 0.04416903  5.1985362 ]
 [ 0.04416903  5.2143406 ]
 [ 0.04416903  5.2319344 ]
 [ 0.04416903  5.2477626 ]
 [ 0.04416903  5.2651934 ]
 [ 0.04416903  5.2809756 ]
 [ 0.04416903  5.2985241 ]
 [ 0.04416903  5.3143011 ]
 [ 0.04416903  5.3318702 ]
 [ 0.04416903  5.347671  ]
 [ 0.04416903  5.3651625 ]
 [ 0.04416903  5.3810066 ]
 [ 0.04416903  5.3985114 ]
 [ 0.04416903  5.4143766 ]
 [ 0.04416903  5.431831  ]
 [ 0.04416903  5.4476394 ]
 [ 0.04416903  5.4651833 ]
 [ 0.04416903  5.4810317 ]
 [ 0.04416903  5.4985959 ]
 [ 0.04416903  5.5143447 ]
 [ 0.04416903  5.5318702 ]
 [ 0.04416903  5.5477328 ]
 [ 0.04416903  5.5651925 ]
 [ 0.04416903  5.5809462 ]
 [ 0.04416903  5.5984896 ]
 [ 0.04416903  5.6141881 ]
 [ 0.04416903  5.6318585 ]
 [ 0.04416903  5.6476711 ]
 [ 0.04416903  5.6651543 ]
 [ 0.04416903  5.6810043 ]
 [ 0.04416903  5.6985482 ]
 [ 0.04416903  5.7143518 ]
 [ 0.04416903  5.7318178 ]
 [ 0.04416903  5.7476501 ]
 [ 0.04416903  5.7651008 ]
 [ 0.04416903  5.7809647 ]
 [ 0.04416903  5.7984804 ]
 [ 0.04416903  5.8143449 ]
 [ 0.04416903  5.8317376 ]
 [ 0.04416903  5.8476675 ]
 [ 0.04416903  5.8651331 ]
 [ 0.04416903  5.8810229 ]
 [ 0.04416903  5.8985273 ]
 [ 0.04416903  5.9143965 ]
 [ 0.04416903  5.9318157 ]
 [ 0.04416903  5.9476748 ]
 [ 0.04416903  5.9651243 ]
 [ 0.04416903  5.9810129 ]
 [ 0.04416903  5.9985728 ]
 [ 0.04416903  6.0143853 ]
 [ 0.04416903  6.0321515 ]
 [ 0.04416903  6.0480984 ]]",6.01,None,None,None,None,None,False,False,False,False,False,False,False,"[[ 0.00000000e+00  6.89999433e-06]
 [ 0.00000000e+00  1.04843000e-02]
 [ 0.00000000e+00  2.70745000e-02]
 [ 0.00000000e+00  4.37705000e-02]
 [ 0.00000000e+00  6.04293000e-02]
 [ 0.00000000e+00  7.70651000e-02]
 [ 0.00000000e+00  9.36427000e-02]
 [ 0.00000000e+00  1.10408300e-01]
 [ 0.00000000e+00  1.27088200e-01]
 [ 0.00000000e+00  1.43771700e-01]
 [ 0.00000000e+00  1.60431700e-01]
 [ 0.00000000e+00  1.77103400e-01]
 [ 0.00000000e+00  1.93774300e-01]
 [ 0.00000000e+00  2.10402000e-01]
 [ 0.00000000e+00  2.27097800e-01]
 [ 0.00000000e+00  2.43772200e-01]
 [ 0.00000000e+00  2.60429300e-01]
 [ 0.00000000e+00  2.77117700e-01]
 [ 0.00000000e+00  2.93767200e-01]
 [ 0.00000000e+00  3.10401300e-01]
 [ 0.00000000e+00  3.27085300e-01]
 [ 0.00000000e+00  3.43771900e-01]
 [ 0.00000000e+00  3.60420900e-01]
 [ 0.00000000e+00  3.77110500e-01]
 [ 0.00000000e+00  3.93778600e-01]
 [ 0.00000000e+00  4.10302100e-01]
 [ 0.00000000e+00  4.26986000e-01]
 [ 0.00000000e+00  4.43634200e-01]
 [ 0.00000000e+00  4.60422600e-01]
 [ 0.00000000e+00  4.77106600e-01]
 [ 0.00000000e+00  4.93796500e-01]
 [ 0.00000000e+00  5.10403400e-01]
 [ 0.00000000e+00  5.27086500e-01]
 [ 0.00000000e+00  5.43782200e-01]
 [ 0.00000000e+00  5.60453500e-01]
 [ 0.00000000e+00  5.77118700e-01]
 [ 0.00000000e+00  5.93650200e-01]
 [ 0.00000000e+00  6.10405900e-01]
 [ 0.00000000e+00  6.27064800e-01]
 [ 0.00000000e+00  6.43777000e-01]
 [ 0.00000000e+00  6.60425200e-01]
 [ 0.00000000e+00  6.77127700e-01]
 [ 0.00000000e+00  6.93754800e-01]
 [ 0.00000000e+00  7.10446900e-01]
 [ 0.00000000e+00  7.27088700e-01]
 [ 0.00000000e+00  7.43780000e-01]
 [ 0.00000000e+00  7.60894500e-01]
 [ 0.00000000e+00  7.77566400e-01]
 [ 0.00000000e+00  7.94227200e-01]
 [ 0.00000000e+00  8.10897900e-01]
 [ 0.00000000e+00  8.27572700e-01]
 [ 0.00000000e+00  8.44236400e-01]
 [ 0.00000000e+00  8.60896500e-01]
 [ 0.00000000e+00  8.77574500e-01]
 [ 0.00000000e+00  8.94235500e-01]
 [ 0.00000000e+00  9.10906300e-01]
 [ 0.00000000e+00  9.27565300e-01]
 [ 0.00000000e+00  9.44240100e-01]
 [ 0.00000000e+00  9.60905000e-01]
 [ 0.00000000e+00  9.77572000e-01]
 [ 0.00000000e+00  9.94235100e-01]
 [ 0.00000000e+00  1.01090770e+00]
 [ 0.00000000e+00  1.02756750e+00]
 [ 0.00000000e+00  1.04424620e+00]
 [ 0.00000000e+00  1.06089940e+00]
 [ 0.00000000e+00  1.07756870e+00]
 [ 0.00000000e+00  1.09423440e+00]
 [ 0.00000000e+00  1.11047100e+00]
 [ 0.00000000e+00  1.12709350e+00]
 [ 0.00000000e+00  1.14378420e+00]
 [ 0.00000000e+00  1.16043440e+00]
 [ 0.00000000e+00  1.17705840e+00]
 [ 0.00000000e+00  1.19377930e+00]
 [ 0.00000000e+00  1.21045950e+00]
 [ 0.00000000e+00  1.22709820e+00]
 [ 0.00000000e+00  1.24378370e+00]
 [ 0.00000000e+00  1.26044680e+00]
 [ 0.00000000e+00  1.27712770e+00]
 [ 0.00000000e+00  1.29379250e+00]
 [ 0.00000000e+00  1.31039690e+00]
 [ 0.00000000e+00  1.32709790e+00]
 [ 0.00000000e+00  1.34374780e+00]
 [ 5.15305334e-02  1.36044790e+00]
 [ 1.39868591e-01  1.37713760e+00]
 [ 2.57652667e-01  1.39422930e+00]
 [ 3.75436743e-01  1.41089690e+00]
 [ 4.85859315e-01  1.42757980e+00]
 [ 5.07943829e-01  1.44424580e+00]
 [ 5.22666839e-01  1.46092400e+00]
 [ 5.59474363e-01  1.47758350e+00]
 [ 5.96281887e-01  1.49420400e+00]
 [ 6.03643391e-01  1.51091040e+00]
 [ 6.47812420e-01  1.52694880e+00]
 [ 7.14065963e-01  1.54423600e+00]
 [ 7.58234991e-01  1.56091210e+00]
 [ 8.02404020e-01  1.57758010e+00]
 [ 8.24488534e-01  1.59379890e+00]
 [ 8.31850039e-01  1.61090270e+00]
 [ 8.61296058e-01  1.62758040e+00]
 [ 8.83380573e-01  1.64424940e+00]
 [ 9.12826592e-01  1.66091140e+00]
 [ 9.20188096e-01  1.67759190e+00]
 [ 9.20188096e-01  1.69424840e+00]
 [ 9.27549601e-01  1.71091710e+00]
 [ 9.42272611e-01  1.72755330e+00]
 [ 9.49634116e-01  1.74425660e+00]
 [ 9.56995620e-01  1.76091590e+00]
 [ 9.56995620e-01  1.77758570e+00]
 [ 9.56995620e-01  1.79424780e+00]
 [ 9.56995620e-01  1.81092030e+00]
 [ 9.56995620e-01  1.82757970e+00]
 [ 9.56995620e-01  1.84424920e+00]
 [ 9.56995620e-01  1.86091430e+00]
 [ 9.56995620e-01  1.87758580e+00]
 [ 9.56995620e-01  1.89424860e+00]
 [ 9.56995620e-01  1.91091760e+00]
 [ 9.56995620e-01  1.92756250e+00]
 [ 9.56995620e-01  1.94366010e+00]
 [ 9.56995620e-01  1.96045960e+00]
 [ 9.56995620e-01  1.97712530e+00]
 [ 9.56995620e-01  1.99380070e+00]
 [ 9.56995620e-01  2.01049930e+00]
 [ 9.56995620e-01  2.02712730e+00]
 [ 9.49634116e-01  2.04380380e+00]
 [ 8.09765525e-01  2.06046400e+00]
 [ 5.81558877e-01  2.07714130e+00]
 [ 1.69314610e-01  2.09379670e+00]
 [ 3.68075239e-02  2.11042940e+00]
 [-1.47230095e-02  2.12695630e+00]
 [-4.41690286e-02  2.14379750e+00]
 [-5.88920382e-02  2.16044340e+00]
 [-6.62535429e-02  2.17713810e+00]
 [-8.83380573e-02  2.19379980e+00]
 [-1.54591600e-01  2.21048320e+00]
 [-1.98760629e-01  2.22711250e+00]
 [-2.42929657e-01  2.24380100e+00]
 [-2.57652667e-01  2.26044700e+00]
 [-2.87098686e-01  2.27713710e+00]
 [-3.68075239e-01  2.29380070e+00]
 [-4.26967277e-01  2.31048690e+00]
 [-4.93220820e-01  2.32695750e+00]
 [-5.22666839e-01  2.34376730e+00]
 [-5.66835867e-01  2.36047880e+00]
 [-6.03643391e-01  2.37758150e+00]
 [-6.25727906e-01  2.39425710e+00]
 [-6.84619944e-01  2.41093040e+00]
 [-7.43511982e-01  2.42759460e+00]
 [-7.80319506e-01  2.44426230e+00]
 [-8.02404020e-01  2.46092490e+00]
 [-8.17127030e-01  2.47759200e+00]
 [-8.24488534e-01  2.49426110e+00]
 [-8.24488534e-01  2.51093030e+00]
 [-8.24488534e-01  2.52759030e+00]
 [-8.24488534e-01  2.54426450e+00]
 [-8.39211544e-01  2.56092880e+00]
 [-8.68657563e-01  2.57759630e+00]
 [-8.76019068e-01  2.59426000e+00]
 [-8.98103582e-01  2.61093040e+00]
 [-9.12826592e-01  2.62759330e+00]
 [-9.34911106e-01  2.64426820e+00]
 [-9.64357125e-01  2.66093280e+00]
 [-1.00000000e+00  2.67759850e+00]
 [-1.00000000e+00  2.69425770e+00]
 [-1.00000000e+00  2.71092870e+00]
 [-1.00000000e+00  2.72759110e+00]
 [-1.00000000e+00  2.74424810e+00]
 [-1.00000000e+00  2.76092290e+00]
 [-1.00000000e+00  2.77759280e+00]
 [-1.00000000e+00  2.79425850e+00]
 [-1.00000000e+00  2.81091200e+00]
 [-1.00000000e+00  2.82713310e+00]
 [-1.00000000e+00  2.84425300e+00]
 [-1.00000000e+00  2.86093470e+00]
 [-1.00000000e+00  2.87760010e+00]
 [-1.00000000e+00  2.89426310e+00]
 [-1.00000000e+00  2.91044600e+00]
 [-9.12826592e-01  2.92754570e+00]
 [-8.09765525e-01  2.94427000e+00]
 [-7.36150477e-01  2.96093330e+00]
 [-6.84619944e-01  2.97760140e+00]
 [-6.33089410e-01  2.99426220e+00]
 [-5.74197372e-01  3.01051700e+00]
 [-5.44751353e-01  3.02759320e+00]
 [-5.15305334e-01  3.04427190e+00]
 [-4.85859315e-01  3.06093260e+00]
 [-4.41690286e-01  3.07760140e+00]
 [-3.90159753e-01  3.09367350e+00]
 [-3.53352229e-01  3.11042200e+00]
 [-3.31267715e-01  3.12697160e+00]
 [-3.23906210e-01  3.14375590e+00]
 [-3.09183200e-01  3.16093570e+00]
 [-2.87098686e-01  3.17760380e+00]
 [-2.57652667e-01  3.19382320e+00]
 [-2.35568153e-01  3.21092470e+00]
 [-1.91399124e-01  3.22760760e+00]
 [-1.61953105e-01  3.24427740e+00]
 [-1.47230095e-01  3.26093890e+00]
 [-1.32507086e-01  3.27762330e+00]
 [-1.17784076e-01  3.29427120e+00]
 [-9.56995620e-02  3.31094090e+00]
 [-5.88920382e-02  3.32757640e+00]
 [-2.94460191e-02  3.34427610e+00]
 [-2.20845143e-02  3.36094640e+00]
 [-1.47230095e-02  3.37761010e+00]
 [-7.36150477e-03  3.39427470e+00]
 [ 0.00000000e+00  3.41094000e+00]
 [ 0.00000000e+00  3.42760590e+00]
 [ 0.00000000e+00  3.44428600e+00]
 [ 0.00000000e+00  3.46094410e+00]
 [ 0.00000000e+00  3.47760810e+00]
 [ 0.00000000e+00  3.49426690e+00]
 [ 0.00000000e+00  3.51095390e+00]
 [ 0.00000000e+00  3.52760920e+00]
 [ 0.00000000e+00  3.54428090e+00]
 [ 0.00000000e+00  3.56094330e+00]
 [ 0.00000000e+00  3.57761610e+00]
 [ 0.00000000e+00  3.59427770e+00]
 [ 0.00000000e+00  3.61094910e+00]
 [ 0.00000000e+00  3.62761620e+00]
 [ 0.00000000e+00  3.64427700e+00]
 [ 0.00000000e+00  3.66095320e+00]
 [ 0.00000000e+00  3.67761520e+00]
 [ 0.00000000e+00  3.69428020e+00]
 [ 0.00000000e+00  3.71094470e+00]
 [ 0.00000000e+00  3.72761830e+00]
 [ 0.00000000e+00  3.74428480e+00]
 [ 0.00000000e+00  3.76094910e+00]
 [ 0.00000000e+00  3.77761730e+00]
 [ 0.00000000e+00  3.79427910e+00]
 [ 0.00000000e+00  3.81094940e+00]
 [ 0.00000000e+00  3.82756940e+00]
 [ 0.00000000e+00  3.84428090e+00]
 [ 0.00000000e+00  3.86094740e+00]
 [ 0.00000000e+00  3.87761730e+00]
 [ 0.00000000e+00  3.89428150e+00]
 [ 0.00000000e+00  3.91095270e+00]
 [ 1.47230095e-02  3.92757070e+00]
 [ 1.47230095e-02  3.94428130e+00]
 [ 1.47230095e-02  3.96094740e+00]
 [ 1.47230095e-02  3.97761860e+00]
 [ 1.47230095e-02  3.99428070e+00]
 [ 1.47230095e-02  4.01095160e+00]
 [ 1.47230095e-02  4.02761610e+00]
 [ 1.47230095e-02  4.04428960e+00]
 [ 1.47230095e-02  4.06095990e+00]
 [ 1.47230095e-02  4.07762540e+00]
 [ 1.47230095e-02  4.09428510e+00]
 [ 1.47230095e-02  4.11095210e+00]
 [ 1.47230095e-02  4.12757690e+00]
 [ 1.47230095e-02  4.14428090e+00]
 [ 1.47230095e-02  4.16095760e+00]
 [ 1.47230095e-02  4.17763020e+00]
 [ 1.47230095e-02  4.19428780e+00]
 [ 1.47230095e-02  4.21094920e+00]
 [ 1.47230095e-02  4.22761840e+00]
 [ 1.47230095e-02  4.24428790e+00]
 [ 1.47230095e-02  4.26095570e+00]
 [ 1.47230095e-02  4.27762970e+00]
 [ 1.47230095e-02  4.29428660e+00]
 [ 1.47230095e-02  4.31095850e+00]
 [ 1.47230095e-02  4.32762510e+00]
 [ 1.47230095e-02  4.34429710e+00]
 [ 1.47230095e-02  4.36096010e+00]
 [ 1.47230095e-02  4.37762640e+00]
 [ 1.47230095e-02  4.39428560e+00]
 [ 1.47230095e-02  4.41096290e+00]
 [ 1.47230095e-02  4.42762370e+00]
 [ 1.47230095e-02  4.44429480e+00]
 [ 1.47230095e-02  4.46096250e+00]
 [ 1.47230095e-02  4.47762420e+00]
 [ 1.47230095e-02  4.49428860e+00]
 [ 1.47230095e-02  4.51095910e+00]
 [ 1.47230095e-02  4.52762620e+00]
 [ 1.47230095e-02  4.54429440e+00]
 [ 1.47230095e-02  4.56095830e+00]
 [ 1.47230095e-02  4.57762830e+00]
 [ 1.47230095e-02  4.59428740e+00]
 [ 1.47230095e-02  4.61096890e+00]
 [ 1.47230095e-02  4.62762460e+00]
 [ 1.47230095e-02  4.64429560e+00]
 [ 1.47230095e-02  4.66095600e+00]
 [ 1.47230095e-02  4.67763410e+00]
 [ 1.47230095e-02  4.69429270e+00]
 [ 1.47230095e-02  4.71096010e+00]
 [ 1.47230095e-02  4.72762930e+00]
 [ 1.47230095e-02  4.74430210e+00]
 [ 1.47230095e-02  4.76096310e+00]
 [ 1.47230095e-02  4.77761830e+00]
 [ 1.47230095e-02  4.79429450e+00]
 [ 1.47230095e-02  4.81096070e+00]
 [ 1.47230095e-02  4.82763010e+00]
 [ 1.47230095e-02  4.84429770e+00]
 [ 1.47230095e-02  4.86096520e+00]
 [ 1.47230095e-02  4.87762830e+00]
 [ 1.47230095e-02  4.89429350e+00]
 [ 1.47230095e-02  4.91097630e+00]
 [ 1.47230095e-02  4.92763040e+00]
 [ 1.47230095e-02  4.94430620e+00]
 [ 1.47230095e-02  4.96096610e+00]
 [ 1.47230095e-02  4.97763030e+00]
 [ 1.47230095e-02  4.99429420e+00]
 [ 1.47230095e-02  5.01097270e+00]
 [ 1.47230095e-02  5.02764560e+00]
 [ 1.47230095e-02  5.04430510e+00]
 [ 1.47230095e-02  5.06097050e+00]
 [ 1.47230095e-02  5.07763970e+00]
 [ 1.47230095e-02  5.09429710e+00]
 [ 1.47230095e-02  5.11096430e+00]
 [ 1.47230095e-02  5.12763090e+00]
 [ 1.47230095e-02  5.14430180e+00]
 [ 1.47230095e-02  5.16096800e+00]
 [ 1.47230095e-02  5.17763350e+00]
 [ 1.47230095e-02  5.19429770e+00]
 [ 1.47230095e-02  5.21096800e+00]
 [ 1.47230095e-02  5.22764480e+00]
 [ 1.47230095e-02  5.24430950e+00]
 [ 1.47230095e-02  5.26097390e+00]
 [ 1.47230095e-02  5.27764590e+00]
 [ 1.47230095e-02  5.29430230e+00]
 [ 1.47230095e-02  5.31097060e+00]
 [ 1.47230095e-02  5.32763790e+00]
 [ 1.47230095e-02  5.34430760e+00]
 [ 1.47230095e-02  5.36097570e+00]
 [ 1.47230095e-02  5.37763730e+00]
 [ 1.47230095e-02  5.39430310e+00]
 [ 1.47230095e-02  5.41096990e+00]
 [ 1.47230095e-02  5.42763000e+00]
 [ 1.47230095e-02  5.44430100e+00]
 [ 1.47230095e-02  5.46096780e+00]
 [ 1.47230095e-02  5.47766070e+00]
 [ 1.47230095e-02  5.49431130e+00]
 [ 1.47230095e-02  5.51097260e+00]
 [ 1.47230095e-02  5.52759600e+00]
 [ 1.47230095e-02  5.54431300e+00]
 [ 1.47230095e-02  5.56097150e+00]
 [ 1.47230095e-02  5.57764420e+00]
 [ 1.47230095e-02  5.59431200e+00]
 [ 1.47230095e-02  5.61097720e+00]
 [ 1.47230095e-02  5.62764680e+00]
 [ 1.47230095e-02  5.64430850e+00]
 [ 1.47230095e-02  5.66097500e+00]
 [ 1.47230095e-02  5.67764360e+00]
 [ 1.47230095e-02  5.69430970e+00]
 [ 1.47230095e-02  5.71098290e+00]
 [ 1.47230095e-02  5.72763070e+00]
 [ 1.47230095e-02  5.74431100e+00]
 [ 1.47230095e-02  5.76097960e+00]
 [ 1.47230095e-02  5.77764830e+00]
 [ 1.47230095e-02  5.79431220e+00]
 [ 1.47230095e-02  5.81097070e+00]
 [ 1.47230095e-02  5.82764490e+00]
 [ 1.47230095e-02  5.84432150e+00]
 [ 1.47230095e-02  5.86098400e+00]
 [ 1.47230095e-02  5.87764900e+00]
 [ 1.47230095e-02  5.89431060e+00]
 [ 1.47230095e-02  5.91097930e+00]
 [ 1.47230095e-02  5.92764670e+00]
 [ 1.47230095e-02  5.94431530e+00]
 [ 1.47230095e-02  5.96098290e+00]
 [ 1.47230095e-02  5.97765360e+00]
 [ 1.47230095e-02  5.99431520e+00]
 [ 1.47230095e-02  6.01098510e+00]
 [ 1.47230095e-02  6.02765360e+00]
 [ 1.47230095e-02  6.04431630e+00]]","[[1.40000000e+02 6.89999433e-06]
 [1.40000000e+02 1.04843000e-02]
 [1.40000000e+02 2.70745000e-02]
 [1.40000000e+02 4.37705000e-02]
 [1.40000000e+02 6.04293000e-02]
 [1.40000000e+02 7.70651000e-02]
 [1.40000000e+02 9.36427000e-02]
 [1.40000000e+02 1.10408300e-01]
 [1.40000000e+02 1.27088200e-01]
 [1.40000000e+02 1.43771700e-01]
 [1.40000000e+02 1.60431700e-01]
 [1.40000000e+02 1.77103400e-01]
 [1.40000000e+02 1.93774300e-01]
 [1.40000000e+02 2.10402000e-01]
 [1.40000000e+02 2.27097800e-01]
 [1.40000000e+02 2.43772200e-01]
 [1.40000000e+02 2.60429300e-01]
 [1.40000000e+02 2.77117700e-01]
 [1.40000000e+02 2.93767200e-01]
 [1.40000000e+02 3.10401300e-01]
 [1.40000000e+02 3.27085300e-01]
 [1.40000000e+02 3.43771900e-01]
 [1.40000000e+02 3.60420900e-01]
 [1.40000000e+02 3.77110500e-01]
 [1.40000000e+02 3.93778600e-01]
 [1.40000000e+02 4.10302100e-01]
 [1.40000000e+02 4.26986000e-01]
 [1.40000000e+02 4.43634200e-01]
 [1.40000000e+02 4.60422600e-01]
 [1.40000000e+02 4.77106600e-01]
 [1.40000000e+02 4.93796500e-01]
 [1.40000000e+02 5.10403400e-01]
 [1.40000000e+02 5.27086500e-01]
 [1.40000000e+02 5.43782200e-01]
 [1.40000000e+02 5.60453500e-01]
 [1.40000000e+02 5.77118700e-01]
 [1.40000000e+02 5.93650200e-01]
 [1.40000000e+02 6.10405900e-01]
 [1.40000000e+02 6.27064800e-01]
 [1.40000000e+02 6.43777000e-01]
 [1.40000000e+02 6.60425200e-01]
 [1.40000000e+02 6.77127700e-01]
 [1.40000000e+02 6.93754800e-01]
 [1.40000000e+02 7.10446900e-01]
 [1.40000000e+02 7.27088700e-01]
 [1.45079438e+02 7.43780000e-01]
 [1.52698596e+02 7.60894500e-01]
 [1.58624607e+02 7.77566400e-01]
 [1.66243765e+02 7.94227200e-01]
 [1.78095787e+02 8.10897900e-01]
 [1.87408091e+02 8.27572700e-01]
 [1.97566967e+02 8.44236400e-01]
 [2.01799833e+02 8.60896500e-01]
 [2.07725844e+02 8.77574500e-01]
 [2.15345001e+02 8.94235500e-01]
 [2.17884720e+02 9.10906300e-01]
 [2.21271013e+02 9.27565300e-01]
 [2.23810732e+02 9.44240100e-01]
 [2.28043597e+02 9.60905000e-01]
 [2.32276462e+02 9.77572000e-01]
 [2.33969608e+02 9.94235100e-01]
 [2.37355901e+02 1.01090770e+00]
 [2.38202474e+02 1.02756750e+00]
 [2.43281912e+02 1.04424620e+00]
 [2.46668204e+02 1.06089940e+00]
 [2.50901069e+02 1.07756870e+00]
 [2.55000000e+02 1.09423440e+00]
 [2.55000000e+02 1.11047100e+00]
 [2.55000000e+02 1.12709350e+00]
 [2.55000000e+02 1.14378420e+00]
 [2.55000000e+02 1.16043440e+00]
 [2.55000000e+02 1.17705840e+00]
 [2.55000000e+02 1.19377930e+00]
 [2.55000000e+02 1.21045950e+00]
 [2.55000000e+02 1.22709820e+00]
 [2.55000000e+02 1.24378370e+00]
 [2.55000000e+02 1.26044680e+00]
 [2.55000000e+02 1.27712770e+00]
 [2.55000000e+02 1.29379250e+00]
 [2.55000000e+02 1.31039690e+00]
 [2.55000000e+02 1.32709790e+00]
 [2.55000000e+02 1.34374780e+00]
 [2.55000000e+02 1.36044790e+00]
 [2.51747642e+02 1.37713760e+00]
 [2.41588766e+02 1.39422930e+00]
 [2.32276462e+02 1.41089690e+00]
 [2.28890170e+02 1.42757980e+00]
 [2.23810732e+02 1.44424580e+00]
 [2.18731294e+02 1.46092400e+00]
 [2.12805282e+02 1.47758350e+00]
 [2.01799833e+02 1.49420400e+00]
 [1.92487529e+02 1.51091040e+00]
 [1.84868372e+02 1.52694880e+00]
 [1.75556068e+02 1.54423600e+00]
 [1.62010899e+02 1.56091210e+00]
 [1.48465730e+02 1.57758010e+00]
 [1.41693146e+02 1.59379890e+00]
 [1.37460281e+02 1.61090270e+00]
 [1.34073989e+02 1.62758040e+00]
 [1.31534270e+02 1.64424940e+00]
 [1.29841123e+02 1.66091140e+00]
 [1.27301404e+02 1.67759190e+00]
 [1.20528820e+02 1.69424840e+00]
 [1.17142528e+02 1.71091710e+00]
 [1.13756235e+02 1.72755330e+00]
 [1.13756235e+02 1.74425660e+00]
 [1.13756235e+02 1.76091590e+00]
 [1.08676797e+02 1.77758570e+00]
 [9.68247745e+01 1.79424780e+00]
 [8.66658979e+01 1.81092030e+00]
 [7.05810100e+01 1.82757970e+00]
 [5.70358412e+01 1.84424920e+00]
 [4.51838185e+01 1.86091430e+00]
 [3.58715150e+01 1.87758580e+00]
 [2.90989306e+01 1.89424860e+00]
 [2.74057845e+01 1.91091760e+00]
 [2.50000000e+01 1.92756250e+00]
 [2.50000000e+01 1.94366010e+00]
 [2.50000000e+01 1.96045960e+00]
 [2.50000000e+01 1.97712530e+00]
 [2.50000000e+01 1.99380070e+00]
 [2.50000000e+01 2.01049930e+00]
 [2.50000000e+01 2.02712730e+00]
 [2.50000000e+01 2.04380380e+00]
 [2.50000000e+01 2.06046400e+00]
 [2.50000000e+01 2.07714130e+00]
 [2.50000000e+01 2.09379670e+00]
 [2.50000000e+01 2.11042940e+00]
 [2.50000000e+01 2.12695630e+00]
 [2.50000000e+01 2.14379750e+00]
 [2.50000000e+01 2.16044340e+00]
 [2.50000000e+01 2.17713810e+00]
 [2.50000000e+01 2.19379980e+00]
 [2.50000000e+01 2.21048320e+00]
 [2.50000000e+01 2.22711250e+00]
 [2.50000000e+01 2.24380100e+00]
 [2.50000000e+01 2.26044700e+00]
 [2.50000000e+01 2.27713710e+00]
 [2.50000000e+01 2.29380070e+00]
 [2.50000000e+01 2.31048690e+00]
 [2.50000000e+01 2.32695750e+00]
 [2.50000000e+01 2.34376730e+00]
 [2.90989306e+01 2.36047880e+00]
 [3.75646611e+01 2.37758150e+00]
 [3.92578072e+01 2.39425710e+00]
 [4.26440994e+01 2.41093040e+00]
 [4.85701107e+01 2.42759460e+00]
 [5.36495490e+01 2.44426230e+00]
 [6.12687065e+01 2.46092490e+00]
 [6.63481448e+01 2.47759200e+00]
 [7.39673022e+01 2.49426110e+00]
 [7.65070213e+01 2.51093030e+00]
 [7.98933135e+01 2.52759030e+00]
 [8.15864596e+01 2.54426450e+00]
 [8.41261788e+01 2.56092880e+00]
 [8.83590440e+01 2.57759630e+00]
 [9.17453362e+01 2.59426000e+00]
 [9.34384823e+01 2.61093040e+00]
 [9.51316284e+01 2.62759330e+00]
 [9.85179206e+01 2.64426820e+00]
 [9.93644937e+01 2.66093280e+00]
 [1.00211067e+02 2.67759850e+00]
 [1.01057640e+02 2.69425770e+00]
 [1.03597359e+02 2.71092870e+00]
 [1.06137078e+02 2.72759110e+00]
 [1.09523370e+02 2.74424810e+00]
 [1.12063089e+02 2.76092290e+00]
 [1.13756235e+02 2.77759280e+00]
 [1.14602809e+02 2.79425850e+00]
 [1.16295955e+02 2.81091200e+00]
 [1.20528820e+02 2.82713310e+00]
 [1.22221966e+02 2.84425300e+00]
 [1.23915112e+02 2.86093470e+00]
 [1.24761685e+02 2.87760010e+00]
 [1.25608258e+02 2.89426310e+00]
 [1.27301404e+02 2.91044600e+00]
 [1.27301404e+02 2.92754570e+00]
 [1.28147977e+02 2.94427000e+00]
 [1.28994550e+02 2.96093330e+00]
 [1.29841123e+02 2.97760140e+00]
 [1.30687696e+02 2.99426220e+00]
 [1.32380843e+02 3.01051700e+00]
 [1.33227416e+02 3.02759320e+00]
 [1.34920562e+02 3.04427190e+00]
 [1.37460281e+02 3.06093260e+00]
 [1.39153427e+02 3.07760140e+00]
 [1.40846573e+02 3.09367350e+00]
 [1.40846573e+02 3.11042200e+00]
 [1.40846573e+02 3.12697160e+00]
 [1.41693146e+02 3.14375590e+00]
 [1.41693146e+02 3.16093570e+00]
 [1.43386292e+02 3.17760380e+00]
 [1.44232865e+02 3.19382320e+00]
 [1.45079438e+02 3.21092470e+00]
 [1.45079438e+02 3.22760760e+00]
 [1.45079438e+02 3.24427740e+00]
 [1.45079438e+02 3.26093890e+00]
 [1.45079438e+02 3.27762330e+00]
 [1.45079438e+02 3.29427120e+00]
 [1.45079438e+02 3.31094090e+00]
 [1.45079438e+02 3.32757640e+00]
 [1.45079438e+02 3.34427610e+00]
 [1.45079438e+02 3.36094640e+00]
 [1.45079438e+02 3.37761010e+00]
 [1.45079438e+02 3.39427470e+00]
 [1.45079438e+02 3.41094000e+00]
 [1.45079438e+02 3.42760590e+00]
 [1.45079438e+02 3.44428600e+00]
 [1.45079438e+02 3.46094410e+00]
 [1.45079438e+02 3.47760810e+00]
 [1.45079438e+02 3.49426690e+00]
 [1.45079438e+02 3.51095390e+00]
 [1.45079438e+02 3.52760920e+00]
 [1.45079438e+02 3.54428090e+00]
 [1.45079438e+02 3.56094330e+00]
 [1.45079438e+02 3.57761610e+00]
 [1.45079438e+02 3.59427770e+00]
 [1.45079438e+02 3.61094910e+00]
 [1.45079438e+02 3.62761620e+00]
 [1.45079438e+02 3.64427700e+00]
 [1.45079438e+02 3.66095320e+00]
 [1.45079438e+02 3.67761520e+00]
 [1.45079438e+02 3.69428020e+00]
 [1.45079438e+02 3.71094470e+00]
 [1.45079438e+02 3.72761830e+00]
 [1.45079438e+02 3.74428480e+00]
 [1.45079438e+02 3.76094910e+00]
 [1.45079438e+02 3.77761730e+00]
 [1.45079438e+02 3.79427910e+00]
 [1.45079438e+02 3.81094940e+00]
 [1.45079438e+02 3.82756940e+00]
 [1.45079438e+02 3.84428090e+00]
 [1.45079438e+02 3.86094740e+00]
 [1.45079438e+02 3.87761730e+00]
 [1.45079438e+02 3.89428150e+00]
 [1.45079438e+02 3.91095270e+00]
 [1.45079438e+02 3.92757070e+00]
 [1.45079438e+02 3.94428130e+00]
 [1.45079438e+02 3.96094740e+00]
 [1.45079438e+02 3.97761860e+00]
 [1.45079438e+02 3.99428070e+00]
 [1.45079438e+02 4.01095160e+00]
 [1.45079438e+02 4.02761610e+00]
 [1.45079438e+02 4.04428960e+00]
 [1.45079438e+02 4.06095990e+00]
 [1.45079438e+02 4.07762540e+00]
 [1.45079438e+02 4.09428510e+00]
 [1.45079438e+02 4.11095210e+00]
 [1.45079438e+02 4.12757690e+00]
 [1.45079438e+02 4.14428090e+00]
 [1.45079438e+02 4.16095760e+00]
 [1.45079438e+02 4.17763020e+00]
 [1.45079438e+02 4.19428780e+00]
 [1.45079438e+02 4.21094920e+00]
 [1.45079438e+02 4.22761840e+00]
 [1.45079438e+02 4.24428790e+00]
 [1.45079438e+02 4.26095570e+00]
 [1.45079438e+02 4.27762970e+00]
 [1.45079438e+02 4.29428660e+00]
 [1.45079438e+02 4.31095850e+00]
 [1.45079438e+02 4.32762510e+00]
 [1.45079438e+02 4.34429710e+00]
 [1.45079438e+02 4.36096010e+00]
 [1.45079438e+02 4.37762640e+00]
 [1.45079438e+02 4.39428560e+00]
 [1.45079438e+02 4.41096290e+00]
 [1.45079438e+02 4.42762370e+00]
 [1.45079438e+02 4.44429480e+00]
 [1.45079438e+02 4.46096250e+00]
 [1.45079438e+02 4.47762420e+00]
 [1.45079438e+02 4.49428860e+00]
 [1.45079438e+02 4.51095910e+00]
 [1.45079438e+02 4.52762620e+00]
 [1.45079438e+02 4.54429440e+00]
 [1.45079438e+02 4.56095830e+00]
 [1.45079438e+02 4.57762830e+00]
 [1.45079438e+02 4.59428740e+00]
 [1.45079438e+02 4.61096890e+00]
 [1.45079438e+02 4.62762460e+00]
 [1.45079438e+02 4.64429560e+00]
 [1.45079438e+02 4.66095600e+00]
 [1.45079438e+02 4.67763410e+00]
 [1.45079438e+02 4.69429270e+00]
 [1.45079438e+02 4.71096010e+00]
 [1.45079438e+02 4.72762930e+00]
 [1.45079438e+02 4.74430210e+00]
 [1.45079438e+02 4.76096310e+00]
 [1.45079438e+02 4.77761830e+00]
 [1.45079438e+02 4.79429450e+00]
 [1.45079438e+02 4.81096070e+00]
 [1.45079438e+02 4.82763010e+00]
 [1.45079438e+02 4.84429770e+00]
 [1.45079438e+02 4.86096520e+00]
 [1.45079438e+02 4.87762830e+00]
 [1.45079438e+02 4.89429350e+00]
 [1.45079438e+02 4.91097630e+00]
 [1.45079438e+02 4.92763040e+00]
 [1.45079438e+02 4.94430620e+00]
 [1.45079438e+02 4.96096610e+00]
 [1.45079438e+02 4.97763030e+00]
 [1.45079438e+02 4.99429420e+00]
 [1.45079438e+02 5.01097270e+00]
 [1.45079438e+02 5.02764560e+00]
 [1.45079438e+02 5.04430510e+00]
 [1.45079438e+02 5.06097050e+00]
 [1.45079438e+02 5.07763970e+00]
 [1.45079438e+02 5.09429710e+00]
 [1.45079438e+02 5.11096430e+00]
 [1.45079438e+02 5.12763090e+00]
 [1.45079438e+02 5.14430180e+00]
 [1.45079438e+02 5.16096800e+00]
 [1.45079438e+02 5.17763350e+00]
 [1.45079438e+02 5.19429770e+00]
 [1.45079438e+02 5.21096800e+00]
 [1.45079438e+02 5.22764480e+00]
 [1.45079438e+02 5.24430950e+00]
 [1.45079438e+02 5.26097390e+00]
 [1.45079438e+02 5.27764590e+00]
 [1.45079438e+02 5.29430230e+00]
 [1.45079438e+02 5.31097060e+00]
 [1.45079438e+02 5.32763790e+00]
 [1.45079438e+02 5.34430760e+00]
 [1.45079438e+02 5.36097570e+00]
 [1.45079438e+02 5.37763730e+00]
 [1.45079438e+02 5.39430310e+00]
 [1.45079438e+02 5.41096990e+00]
 [1.45079438e+02 5.42763000e+00]
 [1.45079438e+02 5.44430100e+00]
 [1.45079438e+02 5.46096780e+00]
 [1.45079438e+02 5.47766070e+00]
 [1.45079438e+02 5.49431130e+00]
 [1.45079438e+02 5.51097260e+00]
 [1.45079438e+02 5.52759600e+00]
 [1.45079438e+02 5.54431300e+00]
 [1.45079438e+02 5.56097150e+00]
 [1.45079438e+02 5.57764420e+00]
 [1.45079438e+02 5.59431200e+00]
 [1.45079438e+02 5.61097720e+00]
 [1.45079438e+02 5.62764680e+00]
 [1.45079438e+02 5.64430850e+00]
 [1.45079438e+02 5.66097500e+00]
 [1.45079438e+02 5.67764360e+00]
 [1.45079438e+02 5.69430970e+00]
 [1.45079438e+02 5.71098290e+00]
 [1.45079438e+02 5.72763070e+00]
 [1.45079438e+02 5.74431100e+00]
 [1.45079438e+02 5.76097960e+00]
 [1.45079438e+02 5.77764830e+00]
 [1.45079438e+02 5.79431220e+00]
 [1.45079438e+02 5.81097070e+00]
 [1.45079438e+02 5.82764490e+00]
 [1.45079438e+02 5.84432150e+00]
 [1.45079438e+02 5.86098400e+00]
 [1.45079438e+02 5.87764900e+00]
 [1.45079438e+02 5.89431060e+00]
 [1.45079438e+02 5.91097930e+00]
 [1.45079438e+02 5.92764670e+00]
 [1.45079438e+02 5.94431530e+00]
 [1.45079438e+02 5.96098290e+00]
 [1.45079438e+02 5.97765360e+00]
 [1.45079438e+02 5.99431520e+00]
 [1.45079438e+02 6.01098510e+00]
 [1.45079438e+02 6.02765360e+00]
 [1.45079438e+02 6.04431630e+00]]","[[ 0.00000000e+00  6.89999433e-06]
 [ 0.00000000e+00  1.04843000e-02]
 [ 0.00000000e+00  2.70745000e-02]
 [ 0.00000000e+00  4.37705000e-02]
 [ 0.00000000e+00  6.04293000e-02]
 [ 0.00000000e+00  7.70651000e-02]
 [ 0.00000000e+00  9.36427000e-02]
 [ 0.00000000e+00  1.10408300e-01]
 [ 0.00000000e+00  1.27088200e-01]
 [ 0.00000000e+00  1.43771700e-01]
 [ 0.00000000e+00  1.60431700e-01]
 [ 0.00000000e+00  1.77103400e-01]
 [ 0.00000000e+00  1.93774300e-01]
 [ 0.00000000e+00  2.10402000e-01]
 [ 0.00000000e+00  2.27097800e-01]
 [ 0.00000000e+00  2.43772200e-01]
 [ 0.00000000e+00  2.60429300e-01]
 [ 0.00000000e+00  2.77117700e-01]
 [ 0.00000000e+00  2.93767200e-01]
 [ 0.00000000e+00  3.10401300e-01]
 [ 0.00000000e+00  3.27085300e-01]
 [ 0.00000000e+00  3.43771900e-01]
 [ 0.00000000e+00  3.60420900e-01]
 [ 0.00000000e+00  3.77110500e-01]
 [ 0.00000000e+00  3.93778600e-01]
 [ 0.00000000e+00  4.10302100e-01]
 [ 0.00000000e+00  4.26986000e-01]
 [ 0.00000000e+00  4.43634200e-01]
 [ 0.00000000e+00  4.60422600e-01]
 [ 0.00000000e+00  4.77106600e-01]
 [ 0.00000000e+00  4.93796500e-01]
 [ 0.00000000e+00  5.10403400e-01]
 [ 0.00000000e+00  5.27086500e-01]
 [ 0.00000000e+00  5.43782200e-01]
 [ 0.00000000e+00  5.60453500e-01]
 [ 0.00000000e+00  5.77118700e-01]
 [ 0.00000000e+00  5.93650200e-01]
 [ 0.00000000e+00  6.10405900e-01]
 [ 0.00000000e+00  6.27064800e-01]
 [ 0.00000000e+00  6.43777000e-01]
 [ 0.00000000e+00  6.60425200e-01]
 [ 0.00000000e+00  6.77127700e-01]
 [ 0.00000000e+00  6.93754800e-01]
 [ 0.00000000e+00  7.10446900e-01]
 [ 0.00000000e+00  7.27088700e-01]
 [ 4.41690286e-02  7.43780000e-01]
 [ 1.10422572e-01  7.60894500e-01]
 [ 1.61953105e-01  7.77566400e-01]
 [ 2.28206648e-01  7.94227200e-01]
 [ 3.31267715e-01  8.10897900e-01]
 [ 4.12244267e-01  8.27572700e-01]
 [ 5.00582324e-01  8.44236400e-01]
 [ 5.37389848e-01  8.60896500e-01]
 [ 5.88920382e-01  8.77574500e-01]
 [ 6.55173925e-01  8.94235500e-01]
 [ 6.77258439e-01  9.10906300e-01]
 [ 7.06704458e-01  9.27565300e-01]
 [ 7.28788972e-01  9.44240100e-01]
 [ 7.65596496e-01  9.60905000e-01]
 [ 8.02404020e-01  9.77572000e-01]
 [ 8.17127030e-01  9.94235100e-01]
 [ 8.46573049e-01  1.01090770e+00]
 [ 8.53934554e-01  1.02756750e+00]
 [ 8.98103582e-01  1.04424620e+00]
 [ 9.27549601e-01  1.06089940e+00]
 [ 9.64357125e-01  1.07756870e+00]
 [ 1.00000000e+00  1.09423440e+00]
 [ 1.00000000e+00  1.11047100e+00]
 [ 1.00000000e+00  1.12709350e+00]
 [ 1.00000000e+00  1.14378420e+00]
 [ 1.00000000e+00  1.16043440e+00]
 [ 1.00000000e+00  1.17705840e+00]
 [ 1.00000000e+00  1.19377930e+00]
 [ 1.00000000e+00  1.21045950e+00]
 [ 1.00000000e+00  1.22709820e+00]
 [ 1.00000000e+00  1.24378370e+00]
 [ 1.00000000e+00  1.26044680e+00]
 [ 1.00000000e+00  1.27712770e+00]
 [ 1.00000000e+00  1.29379250e+00]
 [ 1.00000000e+00  1.31039690e+00]
 [ 1.00000000e+00  1.32709790e+00]
 [ 1.00000000e+00  1.34374780e+00]
 [ 1.00000000e+00  1.36044790e+00]
 [ 9.71718630e-01  1.37713760e+00]
 [ 8.83380573e-01  1.39422930e+00]
 [ 8.02404020e-01  1.41089690e+00]
 [ 7.72958001e-01  1.42757980e+00]
 [ 7.28788972e-01  1.44424580e+00]
 [ 6.84619944e-01  1.46092400e+00]
 [ 6.33089410e-01  1.47758350e+00]
 [ 5.37389848e-01  1.49420400e+00]
 [ 4.56413296e-01  1.51091040e+00]
 [ 3.90159753e-01  1.52694880e+00]
 [ 3.09183200e-01  1.54423600e+00]
 [ 1.91399124e-01  1.56091210e+00]
 [ 7.36150477e-02  1.57758010e+00]
 [ 1.47230095e-02  1.59379890e+00]
 [-2.20845143e-02  1.61090270e+00]
 [-5.15305334e-02  1.62758040e+00]
 [-7.36150477e-02  1.64424940e+00]
 [-8.83380573e-02  1.66091140e+00]
 [-1.10422572e-01  1.67759190e+00]
 [-1.69314610e-01  1.69424840e+00]
 [-1.98760629e-01  1.71091710e+00]
 [-2.28206648e-01  1.72755330e+00]
 [-2.28206648e-01  1.74425660e+00]
 [-2.28206648e-01  1.76091590e+00]
 [-2.72375677e-01  1.77758570e+00]
 [-3.75436743e-01  1.79424780e+00]
 [-4.63774801e-01  1.81092030e+00]
 [-6.03643391e-01  1.82757970e+00]
 [-7.21427468e-01  1.84424920e+00]
 [-8.24488534e-01  1.86091430e+00]
 [-9.05465087e-01  1.87758580e+00]
 [-9.64357125e-01  1.89424860e+00]
 [-9.79080135e-01  1.91091760e+00]
 [-1.00000000e+00  1.92756250e+00]
 [-1.00000000e+00  1.94366010e+00]
 [-1.00000000e+00  1.96045960e+00]
 [-1.00000000e+00  1.97712530e+00]
 [-1.00000000e+00  1.99380070e+00]
 [-1.00000000e+00  2.01049930e+00]
 [-1.00000000e+00  2.02712730e+00]
 [-1.00000000e+00  2.04380380e+00]
 [-1.00000000e+00  2.06046400e+00]
 [-1.00000000e+00  2.07714130e+00]
 [-1.00000000e+00  2.09379670e+00]
 [-1.00000000e+00  2.11042940e+00]
 [-1.00000000e+00  2.12695630e+00]
 [-1.00000000e+00  2.14379750e+00]
 [-1.00000000e+00  2.16044340e+00]
 [-1.00000000e+00  2.17713810e+00]
 [-1.00000000e+00  2.19379980e+00]
 [-1.00000000e+00  2.21048320e+00]
 [-1.00000000e+00  2.22711250e+00]
 [-1.00000000e+00  2.24380100e+00]
 [-1.00000000e+00  2.26044700e+00]
 [-1.00000000e+00  2.27713710e+00]
 [-1.00000000e+00  2.29380070e+00]
 [-1.00000000e+00  2.31048690e+00]
 [-1.00000000e+00  2.32695750e+00]
 [-1.00000000e+00  2.34376730e+00]
 [-9.64357125e-01  2.36047880e+00]
 [-8.90742077e-01  2.37758150e+00]
 [-8.76019068e-01  2.39425710e+00]
 [-8.46573049e-01  2.41093040e+00]
 [-7.95042515e-01  2.42759460e+00]
 [-7.50873487e-01  2.44426230e+00]
 [-6.84619944e-01  2.46092490e+00]
 [-6.40450915e-01  2.47759200e+00]
 [-5.74197372e-01  2.49426110e+00]
 [-5.52112858e-01  2.51093030e+00]
 [-5.22666839e-01  2.52759030e+00]
 [-5.07943829e-01  2.54426450e+00]
 [-4.85859315e-01  2.56092880e+00]
 [-4.49051791e-01  2.57759630e+00]
 [-4.19605772e-01  2.59426000e+00]
 [-4.04882762e-01  2.61093040e+00]
 [-3.90159753e-01  2.62759330e+00]
 [-3.60713734e-01  2.64426820e+00]
 [-3.53352229e-01  2.66093280e+00]
 [-3.45990724e-01  2.67759850e+00]
 [-3.38629219e-01  2.69425770e+00]
 [-3.16544705e-01  2.71092870e+00]
 [-2.94460191e-01  2.72759110e+00]
 [-2.65014172e-01  2.74424810e+00]
 [-2.42929657e-01  2.76092290e+00]
 [-2.28206648e-01  2.77759280e+00]
 [-2.20845143e-01  2.79425850e+00]
 [-2.06122134e-01  2.81091200e+00]
 [-1.69314610e-01  2.82713310e+00]
 [-1.54591600e-01  2.84425300e+00]
 [-1.39868591e-01  2.86093470e+00]
 [-1.32507086e-01  2.87760010e+00]
 [-1.25145581e-01  2.89426310e+00]
 [-1.10422572e-01  2.91044600e+00]
 [-1.10422572e-01  2.92754570e+00]
 [-1.03061067e-01  2.94427000e+00]
 [-9.56995620e-02  2.96093330e+00]
 [-8.83380573e-02  2.97760140e+00]
 [-8.09765525e-02  2.99426220e+00]
 [-6.62535429e-02  3.01051700e+00]
 [-5.88920382e-02  3.02759320e+00]
 [-4.41690286e-02  3.04427190e+00]
 [-2.20845143e-02  3.06093260e+00]
 [-7.36150477e-03  3.07760140e+00]
 [ 7.36150477e-03  3.09367350e+00]
 [ 7.36150477e-03  3.11042200e+00]
 [ 7.36150477e-03  3.12697160e+00]
 [ 1.47230095e-02  3.14375590e+00]
 [ 1.47230095e-02  3.16093570e+00]
 [ 2.94460191e-02  3.17760380e+00]
 [ 3.68075239e-02  3.19382320e+00]
 [ 4.41690286e-02  3.21092470e+00]
 [ 4.41690286e-02  3.22760760e+00]
 [ 4.41690286e-02  3.24427740e+00]
 [ 4.41690286e-02  3.26093890e+00]
 [ 4.41690286e-02  3.27762330e+00]
 [ 4.41690286e-02  3.29427120e+00]
 [ 4.41690286e-02  3.31094090e+00]
 [ 4.41690286e-02  3.32757640e+00]
 [ 4.41690286e-02  3.34427610e+00]
 [ 4.41690286e-02  3.36094640e+00]
 [ 4.41690286e-02  3.37761010e+00]
 [ 4.41690286e-02  3.39427470e+00]
 [ 4.41690286e-02  3.41094000e+00]
 [ 4.41690286e-02  3.42760590e+00]
 [ 4.41690286e-02  3.44428600e+00]
 [ 4.41690286e-02  3.46094410e+00]
 [ 4.41690286e-02  3.47760810e+00]
 [ 4.41690286e-02  3.49426690e+00]
 [ 4.41690286e-02  3.51095390e+00]
 [ 4.41690286e-02  3.52760920e+00]
 [ 4.41690286e-02  3.54428090e+00]
 [ 4.41690286e-02  3.56094330e+00]
 [ 4.41690286e-02  3.57761610e+00]
 [ 4.41690286e-02  3.59427770e+00]
 [ 4.41690286e-02  3.61094910e+00]
 [ 4.41690286e-02  3.62761620e+00]
 [ 4.41690286e-02  3.64427700e+00]
 [ 4.41690286e-02  3.66095320e+00]
 [ 4.41690286e-02  3.67761520e+00]
 [ 4.41690286e-02  3.69428020e+00]
 [ 4.41690286e-02  3.71094470e+00]
 [ 4.41690286e-02  3.72761830e+00]
 [ 4.41690286e-02  3.74428480e+00]
 [ 4.41690286e-02  3.76094910e+00]
 [ 4.41690286e-02  3.77761730e+00]
 [ 4.41690286e-02  3.79427910e+00]
 [ 4.41690286e-02  3.81094940e+00]
 [ 4.41690286e-02  3.82756940e+00]
 [ 4.41690286e-02  3.84428090e+00]
 [ 4.41690286e-02  3.86094740e+00]
 [ 4.41690286e-02  3.87761730e+00]
 [ 4.41690286e-02  3.89428150e+00]
 [ 4.41690286e-02  3.91095270e+00]
 [ 4.41690286e-02  3.92757070e+00]
 [ 4.41690286e-02  3.94428130e+00]
 [ 4.41690286e-02  3.96094740e+00]
 [ 4.41690286e-02  3.97761860e+00]
 [ 4.41690286e-02  3.99428070e+00]
 [ 4.41690286e-02  4.01095160e+00]
 [ 4.41690286e-02  4.02761610e+00]
 [ 4.41690286e-02  4.04428960e+00]
 [ 4.41690286e-02  4.06095990e+00]
 [ 4.41690286e-02  4.07762540e+00]
 [ 4.41690286e-02  4.09428510e+00]
 [ 4.41690286e-02  4.11095210e+00]
 [ 4.41690286e-02  4.12757690e+00]
 [ 4.41690286e-02  4.14428090e+00]
 [ 4.41690286e-02  4.16095760e+00]
 [ 4.41690286e-02  4.17763020e+00]
 [ 4.41690286e-02  4.19428780e+00]
 [ 4.41690286e-02  4.21094920e+00]
 [ 4.41690286e-02  4.22761840e+00]
 [ 4.41690286e-02  4.24428790e+00]
 [ 4.41690286e-02  4.26095570e+00]
 [ 4.41690286e-02  4.27762970e+00]
 [ 4.41690286e-02  4.29428660e+00]
 [ 4.41690286e-02  4.31095850e+00]
 [ 4.41690286e-02  4.32762510e+00]
 [ 4.41690286e-02  4.34429710e+00]
 [ 4.41690286e-02  4.36096010e+00]
 [ 4.41690286e-02  4.37762640e+00]
 [ 4.41690286e-02  4.39428560e+00]
 [ 4.41690286e-02  4.41096290e+00]
 [ 4.41690286e-02  4.42762370e+00]
 [ 4.41690286e-02  4.44429480e+00]
 [ 4.41690286e-02  4.46096250e+00]
 [ 4.41690286e-02  4.47762420e+00]
 [ 4.41690286e-02  4.49428860e+00]
 [ 4.41690286e-02  4.51095910e+00]
 [ 4.41690286e-02  4.52762620e+00]
 [ 4.41690286e-02  4.54429440e+00]
 [ 4.41690286e-02  4.56095830e+00]
 [ 4.41690286e-02  4.57762830e+00]
 [ 4.41690286e-02  4.59428740e+00]
 [ 4.41690286e-02  4.61096890e+00]
 [ 4.41690286e-02  4.62762460e+00]
 [ 4.41690286e-02  4.64429560e+00]
 [ 4.41690286e-02  4.66095600e+00]
 [ 4.41690286e-02  4.67763410e+00]
 [ 4.41690286e-02  4.69429270e+00]
 [ 4.41690286e-02  4.71096010e+00]
 [ 4.41690286e-02  4.72762930e+00]
 [ 4.41690286e-02  4.74430210e+00]
 [ 4.41690286e-02  4.76096310e+00]
 [ 4.41690286e-02  4.77761830e+00]
 [ 4.41690286e-02  4.79429450e+00]
 [ 4.41690286e-02  4.81096070e+00]
 [ 4.41690286e-02  4.82763010e+00]
 [ 4.41690286e-02  4.84429770e+00]
 [ 4.41690286e-02  4.86096520e+00]
 [ 4.41690286e-02  4.87762830e+00]
 [ 4.41690286e-02  4.89429350e+00]
 [ 4.41690286e-02  4.91097630e+00]
 [ 4.41690286e-02  4.92763040e+00]
 [ 4.41690286e-02  4.94430620e+00]
 [ 4.41690286e-02  4.96096610e+00]
 [ 4.41690286e-02  4.97763030e+00]
 [ 4.41690286e-02  4.99429420e+00]
 [ 4.41690286e-02  5.01097270e+00]
 [ 4.41690286e-02  5.02764560e+00]
 [ 4.41690286e-02  5.04430510e+00]
 [ 4.41690286e-02  5.06097050e+00]
 [ 4.41690286e-02  5.07763970e+00]
 [ 4.41690286e-02  5.09429710e+00]
 [ 4.41690286e-02  5.11096430e+00]
 [ 4.41690286e-02  5.12763090e+00]
 [ 4.41690286e-02  5.14430180e+00]
 [ 4.41690286e-02  5.16096800e+00]
 [ 4.41690286e-02  5.17763350e+00]
 [ 4.41690286e-02  5.19429770e+00]
 [ 4.41690286e-02  5.21096800e+00]
 [ 4.41690286e-02  5.22764480e+00]
 [ 4.41690286e-02  5.24430950e+00]
 [ 4.41690286e-02  5.26097390e+00]
 [ 4.41690286e-02  5.27764590e+00]
 [ 4.41690286e-02  5.29430230e+00]
 [ 4.41690286e-02  5.31097060e+00]
 [ 4.41690286e-02  5.32763790e+00]
 [ 4.41690286e-02  5.34430760e+00]
 [ 4.41690286e-02  5.36097570e+00]
 [ 4.41690286e-02  5.37763730e+00]
 [ 4.41690286e-02  5.39430310e+00]
 [ 4.41690286e-02  5.41096990e+00]
 [ 4.41690286e-02  5.42763000e+00]
 [ 4.41690286e-02  5.44430100e+00]
 [ 4.41690286e-02  5.46096780e+00]
 [ 4.41690286e-02  5.47766070e+00]
 [ 4.41690286e-02  5.49431130e+00]
 [ 4.41690286e-02  5.51097260e+00]
 [ 4.41690286e-02  5.52759600e+00]
 [ 4.41690286e-02  5.54431300e+00]
 [ 4.41690286e-02  5.56097150e+00]
 [ 4.41690286e-02  5.57764420e+00]
 [ 4.41690286e-02  5.59431200e+00]
 [ 4.41690286e-02  5.61097720e+00]
 [ 4.41690286e-02  5.62764680e+00]
 [ 4.41690286e-02  5.64430850e+00]
 [ 4.41690286e-02  5.66097500e+00]
 [ 4.41690286e-02  5.67764360e+00]
 [ 4.41690286e-02  5.69430970e+00]
 [ 4.41690286e-02  5.71098290e+00]
 [ 4.41690286e-02  5.72763070e+00]
 [ 4.41690286e-02  5.74431100e+00]
 [ 4.41690286e-02  5.76097960e+00]
 [ 4.41690286e-02  5.77764830e+00]
 [ 4.41690286e-02  5.79431220e+00]
 [ 4.41690286e-02  5.81097070e+00]
 [ 4.41690286e-02  5.82764490e+00]
 [ 4.41690286e-02  5.84432150e+00]
 [ 4.41690286e-02  5.86098400e+00]
 [ 4.41690286e-02  5.87764900e+00]
 [ 4.41690286e-02  5.89431060e+00]
 [ 4.41690286e-02  5.91097930e+00]
 [ 4.41690286e-02  5.92764670e+00]
 [ 4.41690286e-02  5.94431530e+00]
 [ 4.41690286e-02  5.96098290e+00]
 [ 4.41690286e-02  5.97765360e+00]
 [ 4.41690286e-02  5.99431520e+00]
 [ 4.41690286e-02  6.01098510e+00]
 [ 4.41690286e-02  6.02765360e+00]
 [ 4.41690286e-02  6.04431630e+00]]",22,A,non_immersive,No,8,2024-04-26_13h02.42.344,Experiment_VR_non_immersive,60.01125811041845,
2,../amsterdam_dynamic_facial_expression_set/F01-Disgust-Face Forward.mp4,arousal,right,HV-LA,direct,0,,,,,0,1,1,1,"[[ 0.          0.0063644 ]
 [ 0.          0.0229998 ]
 [ 0.          0.0396165 ]
 [ 0.          0.0567668 ]
 [ 0.          0.0729224 ]
 [ 0.          0.0904917 ]
 [ 0.          0.1062743 ]
 [ 0.          0.1238995 ]
 [ 0.          0.1395529 ]
 [ 0.          0.1570633 ]
 [ 0.          0.1729093 ]
 [ 0.          0.1906573 ]
 [ 0.          0.2062391 ]
 [ 0.          0.2237982 ]
 [ 0.          0.2395671 ]
 [ 0.          0.2571161 ]
 [ 0.          0.2728878 ]
 [ 0.          0.2904769 ]
 [ 0.          0.3062147 ]
 [ 0.          0.3237394 ]
 [ 0.          0.339555  ]
 [ 0.          0.357074  ]
 [ 0.          0.3729154 ]
 [ 0.          0.390466  ]
 [ 0.          0.4062246 ]
 [ 0.          0.4237647 ]
 [ 0.          0.4395702 ]
 [ 0.          0.4570747 ]
 [ 0.          0.4729276 ]
 [ 0.          0.4904171 ]
 [ 0.          0.5061128 ]
 [ 0.          0.5238154 ]
 [ 0.          0.5395758 ]
 [ 0.          0.5571127 ]
 [ 0.          0.5728893 ]
 [ 0.          0.590463  ]
 [ 0.          0.6062474 ]
 [ 0.          0.6238047 ]
 [ 0.          0.6396098 ]
 [ 0.          0.6570809 ]
 [ 0.          0.6729323 ]
 [ 0.          0.6904768 ]
 [ 0.          0.7062446 ]
 [ 0.          0.7237722 ]
 [ 0.          0.7395933 ]
 [ 0.          0.7570845 ]
 [ 0.          0.7729186 ]
 [ 0.          0.7905158 ]
 [ 0.          0.8063693 ]
 [ 0.          0.8238826 ]
 [ 0.          0.8394816 ]
 [ 0.          0.8570763 ]
 [ 0.          0.8729319 ]
 [ 0.          0.8905054 ]
 [ 0.          0.9062579 ]
 [ 0.          0.9238202 ]
 [ 0.          0.9396376 ]
 [ 0.          0.9571399 ]
 [ 0.          0.9729015 ]
 [ 0.          0.9905048 ]
 [ 0.          1.0062585 ]
 [ 0.          1.0238455 ]
 [ 0.          1.0396086 ]
 [ 0.          1.0569993 ]
 [ 0.          1.0729289 ]
 [ 0.          1.0904734 ]
 [ 0.          1.1062705 ]
 [ 0.          1.123879  ]
 [ 0.          1.1394674 ]
 [ 0.          1.1572028 ]
 [ 0.          1.1728629 ]
 [ 0.          1.190515  ]
 [ 0.          1.2062578 ]
 [ 0.0073615   1.2240153 ]
 [ 0.28709869  1.2397796 ]
 [ 0.6183664   1.2575818 ]
 [ 0.83185004  1.2733998 ]
 [ 1.          1.2910776 ]
 [ 1.          1.3064144 ]
 [ 1.          1.3237771 ]
 [ 1.          1.3395825 ]
 [ 1.          1.3570099 ]
 [ 1.          1.3730757 ]
 [ 1.          1.3906404 ]
 [ 1.          1.406395  ]
 [ 1.          1.4238956 ]
 [ 1.          1.4397646 ]
 [ 1.          1.4573174 ]
 [ 1.          1.4729024 ]
 [ 1.          1.4906294 ]
 [ 1.          1.5062624 ]
 [ 1.          1.5238381 ]
 [ 1.          1.5395912 ]
 [ 1.          1.5572584 ]
 [ 1.          1.5730783 ]
 [ 1.          1.5906243 ]
 [ 1.          1.6063961 ]
 [ 1.          1.6238167 ]
 [ 1.          1.6395968 ]
 [ 1.          1.6571137 ]
 [ 1.          1.6731396 ]
 [ 1.          1.6905926 ]
 [ 1.          1.706392  ]
 [ 1.          1.7238321 ]
 [ 1.          1.7394633 ]
 [ 1.          1.7572793 ]
 [ 1.          1.7730852 ]
 [ 1.          1.7906222 ]
 [ 1.          1.806404  ]
 [ 1.          1.823964  ]
 [ 1.          1.8397378 ]
 [ 1.          1.8572517 ]
 [ 1.          1.8729348 ]
 [ 1.          1.890677  ]
 [ 1.          1.9063813 ]
 [ 0.99380314  1.9237987 ]
 [ 0.97908013  1.9399255 ]
 [ 0.97908013  1.9571068 ]
 [ 0.97908013  1.9730072 ]
 [ 0.97908013  1.9905099 ]
 [ 0.94963412  2.0064299 ]
 [ 0.86129606  2.0243312 ]
 [ 0.80240402  2.0398008 ]
 [ 0.74351198  2.0576174 ]
 [ 0.67725844  2.0733641 ]
 [ 0.58892038  2.090601  ]
 [ 0.51530533  2.1065646 ]
 [ 0.41224427  2.1241194 ]
 [ 0.29446019  2.1399185 ]
 [ 0.1545916   2.1575705 ]
 [ 0.02944602  2.1734534 ]
 [-0.11042257  2.1909529 ]
 [-0.18403762  2.2066899 ]
 [-0.24292966  2.2242986 ]
 [-0.27973718  2.2397152 ]
 [-0.3018217   2.257581  ]
 [-0.31654471  2.2729435 ]
 [-0.36807524  2.2906543 ]
 [-0.39752126  2.3067136 ]
 [-0.44169029  2.3238088 ]
 [-0.4637748   2.33962   ]
 [-0.53002834  2.3575811 ]
 [-0.6110049   2.373091  ]
 [-0.69934295  2.3909568 ]
 [-0.75823499  2.4067262 ]
 [-0.81712703  2.4242243 ]
 [-0.85393455  2.43974   ]
 [-0.86865756  2.4572787 ]
 [-0.87601907  2.4733082 ]
 [-0.89810358  2.49069   ]
 [-0.9275496   2.5064236 ]
 [-0.97908013  2.5238114 ]
 [-1.          2.5399183 ]
 [-1.          2.5573153 ]
 [-1.          2.573091  ]
 [-1.          2.5906529 ]
 [-1.          2.6064035 ]
 [-1.          2.6237811 ]
 [-1.          2.6396061 ]
 [-1.          2.6572686 ]
 [-1.          2.672959  ]
 [-1.          2.6905135 ]
 [-1.          2.7062522 ]
 [-1.          2.7238512 ]
 [-1.          2.739596  ]
 [-1.          2.7571194 ]
 [-1.          2.7729738 ]
 [-1.          2.7907347 ]
 [-0.96435713  2.806347  ]
 [-0.84657305  2.8239105 ]
 [-0.75823499  2.8399537 ]
 [-0.68461994  2.8571209 ]
 [-0.63308941  2.8732557 ]
 [-0.51530533  2.8910823 ]
 [-0.4637748   2.9066359 ]
 [-0.43432878  2.9237901 ]
 [-0.41224427  2.9399208 ]
 [-0.40488276  2.9573014 ]
 [-0.39015975  2.973093  ]
 [-0.36807524  2.9906365 ]
 [-0.34599072  3.0064082 ]
 [-0.31654471  3.0241766 ]
 [-0.28709869  3.0397791 ]
 [-0.28709869  3.05697   ]
 [-0.28709869  3.0729324 ]
 [-0.25029116  3.0907413 ]
 [-0.19139912  3.1068238 ]
 [-0.11042257  3.1238431 ]
 [-0.0073615   3.1399448 ]
 [ 0.03680752  3.1576014 ]
 [ 0.06625354  3.1730996 ]
 [ 0.07361505  3.1909432 ]
 [ 0.07361505  3.20615   ]
 [ 0.07361505  3.2238783 ]
 [ 0.07361505  3.2396159 ]
 [ 0.07361505  3.2571333 ]
 [ 0.07361505  3.2729267 ]
 [ 0.07361505  3.2904623 ]
 [ 0.07361505  3.3062735 ]
 [ 0.07361505  3.3238028 ]
 [ 0.07361505  3.3396034 ]
 [ 0.07361505  3.3571586 ]
 [ 0.07361505  3.3729732 ]
 [ 0.07361505  3.3903296 ]
 [ 0.07361505  3.4061348 ]
 [ 0.07361505  3.4237794 ]
 [ 0.07361505  3.4396167 ]
 [ 0.07361505  3.4571445 ]
 [ 0.07361505  3.4728116 ]
 [ 0.07361505  3.4905446 ]
 [ 0.07361505  3.5061933 ]
 [ 0.07361505  3.5237988 ]
 [ 0.07361505  3.5396262 ]
 [ 0.07361505  3.557183  ]
 [ 0.07361505  3.5729384 ]
 [ 0.10306107  3.590632  ]
 [ 0.10306107  3.6062683 ]
 [ 0.10306107  3.6237948 ]
 [ 0.10306107  3.6396136 ]
 [ 0.10306107  3.6571112 ]
 [ 0.10306107  3.6729376 ]
 [ 0.10306107  3.6904443 ]
 [ 0.10306107  3.7063547 ]
 [ 0.10306107  3.7237402 ]
 [ 0.10306107  3.7396245 ]
 [ 0.10306107  3.7571276 ]
 [ 0.10306107  3.7729384 ]
 [ 0.10306107  3.7904976 ]
 [ 0.10306107  3.8061585 ]
 [ 0.10306107  3.8238085 ]
 [ 0.10306107  3.8396132 ]
 [ 0.10306107  3.8570383 ]
 [ 0.10306107  3.8729123 ]
 [ 0.10306107  3.8904443 ]
 [ 0.10306107  3.9062968 ]
 [ 0.10306107  3.9238226 ]
 [ 0.10306107  3.9396684 ]
 [ 0.10306107  3.9571427 ]
 [ 0.10306107  3.9729624 ]
 [ 0.10306107  3.990545  ]
 [ 0.10306107  4.0062607 ]
 [ 0.10306107  4.0238015 ]
 [ 0.10306107  4.0396371 ]
 [ 0.10306107  4.057135  ]
 [ 0.10306107  4.0728484 ]
 [ 0.11042257  4.0908189 ]
 [ 0.11042257  4.1061978 ]
 [ 0.11042257  4.12378   ]
 [ 0.11042257  4.1395049 ]
 [ 0.11042257  4.1572323 ]
 [ 0.11042257  4.1729725 ]
 [ 0.11042257  4.1904603 ]
 [ 0.11042257  4.2062793 ]
 [ 0.11042257  4.2238028 ]
 [ 0.11042257  4.2396131 ]
 [ 0.11042257  4.2571468 ]
 [ 0.11042257  4.2729543 ]
 [ 0.11042257  4.2905412 ]
 [ 0.11042257  4.3062587 ]
 [ 0.11042257  4.3238538 ]
 [ 0.11042257  4.3396222 ]
 [ 0.11042257  4.3571496 ]
 [ 0.11042257  4.3729517 ]
 [ 0.11042257  4.390537  ]
 [ 0.11042257  4.4061868 ]
 [ 0.11042257  4.4237569 ]
 [ 0.11042257  4.4394981 ]
 [ 0.11042257  4.4570638 ]
 [ 0.11042257  4.4727799 ]
 [ 0.11042257  4.4904855 ]
 [ 0.11042257  4.5062578 ]
 [ 0.11042257  4.5238289 ]
 [ 0.11042257  4.5396344 ]
 [ 0.11042257  4.5571433 ]
 [ 0.11042257  4.5729527 ]
 [ 0.11042257  4.5905254 ]
 [ 0.11042257  4.60628   ]
 [ 0.11042257  4.6236529 ]
 [ 0.11042257  4.6396367 ]
 [ 0.11042257  4.6571799 ]
 [ 0.11042257  4.6729517 ]
 [ 0.11042257  4.6905194 ]
 [ 0.11042257  4.706166  ]
 [ 0.11042257  4.723797  ]
 [ 0.11042257  4.7396625 ]
 [ 0.11042257  4.7572009 ]
 [ 0.11042257  4.7729821 ]
 [ 0.11042257  4.7903886 ]
 [ 0.11042257  4.8061516 ]
 [ 0.11042257  4.8238042 ]
 [ 0.11042257  4.8396507 ]
 [ 0.11042257  4.8571408 ]
 [ 0.11042257  4.872959  ]
 [ 0.11042257  4.8905428 ]
 [ 0.11042257  4.9062697 ]
 [ 0.11042257  4.923815  ]
 [ 0.11042257  4.9396378 ]
 [ 0.11042257  4.9571535 ]
 [ 0.11042257  4.9729556 ]
 [ 0.11042257  4.990546  ]
 [ 0.11042257  5.0062039 ]
 [ 0.11042257  5.023799  ]
 [ 0.11042257  5.039685  ]
 [ 0.11042257  5.0571749 ]
 [ 0.11042257  5.0730919 ]
 [ 0.11042257  5.0905192 ]
 [ 0.11042257  5.1063188 ]
 [ 0.11042257  5.1237801 ]
 [ 0.11042257  5.1396696 ]
 [ 0.11042257  5.1571916 ]
 [ 0.11042257  5.1730019 ]
 [ 0.11042257  5.1906543 ]
 [ 0.11042257  5.2064688 ]
 [ 0.11042257  5.2238334 ]
 [ 0.11042257  5.2397289 ]
 [ 0.11042257  5.2572429 ]
 [ 0.11042257  5.2730284 ]
 [ 0.11042257  5.2906055 ]
 [ 0.11042257  5.3062138 ]
 [ 0.11042257  5.3238725 ]
 [ 0.11042257  5.3396537 ]
 [ 0.11042257  5.357248  ]
 [ 0.11042257  5.3729121 ]
 [ 0.11042257  5.390482  ]
 [ 0.11042257  5.4063371 ]
 [ 0.11042257  5.4238891 ]
 [ 0.11042257  5.4396691 ]
 [ 0.11042257  5.4571409 ]
 [ 0.11042257  5.4729627 ]
 [ 0.11042257  5.4905836 ]
 [ 0.11042257  5.5063322 ]
 [ 0.11042257  5.5238273 ]
 [ 0.11042257  5.5397154 ]
 [ 0.11042257  5.557529  ]
 [ 0.11042257  5.573072  ]
 [ 0.11042257  5.5906366 ]
 [ 0.11042257  5.6062172 ]
 [ 0.11042257  5.6238042 ]
 [ 0.11042257  5.6396587 ]
 [ 0.11042257  5.6572736 ]
 [ 0.11042257  5.6729391 ]
 [ 0.11042257  5.6904728 ]
 [ 0.11042257  5.7062393 ]
 [ 0.11042257  5.7237322 ]
 [ 0.11042257  5.7396839 ]
 [ 0.11042257  5.7571911 ]
 [ 0.11042257  5.7729598 ]
 [ 0.11042257  5.7906439 ]
 [ 0.11042257  5.806341  ]
 [ 0.11042257  5.8239469 ]
 [ 0.11042257  5.8397108 ]
 [ 0.11042257  5.8572766 ]
 [ 0.11042257  5.8730337 ]
 [ 0.11042257  5.8906125 ]
 [ 0.11042257  5.9062974 ]
 [ 0.11042257  5.9238814 ]
 [ 0.11042257  5.9397    ]
 [ 0.11042257  5.9574297 ]
 [ 0.11042257  5.972999  ]
 [ 0.11042257  5.9904871 ]
 [ 0.11042257  6.0064564 ]
 [ 0.11042257  6.0236222 ]
 [ 0.11042257  6.0402084 ]]",6.01,None,None,None,None,None,False,False,False,False,False,True,True,"[[ 0.00000000e+00  6.50000584e-06]
 [ 0.00000000e+00  2.09951000e-02]
 [ 0.00000000e+00  3.76419000e-02]
 [ 0.00000000e+00  5.43030000e-02]
 [ 0.00000000e+00  7.09719000e-02]
 [ 0.00000000e+00  8.76628000e-02]
 [ 0.00000000e+00  1.04313800e-01]
 [ 0.00000000e+00  1.20950900e-01]
 [ 0.00000000e+00  1.37638600e-01]
 [ 0.00000000e+00  1.54295300e-01]
 [ 0.00000000e+00  1.70968500e-01]
 [ 0.00000000e+00  1.87619000e-01]
 [ 0.00000000e+00  2.04276000e-01]
 [ 0.00000000e+00  2.20791800e-01]
 [ 0.00000000e+00  2.37596300e-01]
 [ 0.00000000e+00  2.54312900e-01]
 [ 0.00000000e+00  2.70984100e-01]
 [ 0.00000000e+00  2.87637200e-01]
 [ 0.00000000e+00  3.04270100e-01]
 [ 0.00000000e+00  3.20954900e-01]
 [ 0.00000000e+00  3.37647200e-01]
 [ 0.00000000e+00  3.54303200e-01]
 [ 0.00000000e+00  3.70978400e-01]
 [ 0.00000000e+00  3.87636100e-01]
 [ 0.00000000e+00  4.04197400e-01]
 [ 0.00000000e+00  4.20958100e-01]
 [ 0.00000000e+00  4.37660100e-01]
 [ 0.00000000e+00  4.54306800e-01]
 [ 0.00000000e+00  4.70976100e-01]
 [ 0.00000000e+00  4.87636200e-01]
 [ 0.00000000e+00  5.04271100e-01]
 [ 0.00000000e+00  5.20957800e-01]
 [ 0.00000000e+00  5.37662400e-01]
 [ 0.00000000e+00  5.54294000e-01]
 [ 0.00000000e+00  5.70987700e-01]
 [ 0.00000000e+00  5.87629100e-01]
 [ 0.00000000e+00  6.04176500e-01]
 [ 0.00000000e+00  6.20957900e-01]
 [ 0.00000000e+00  6.37663600e-01]
 [ 0.00000000e+00  6.54310500e-01]
 [ 0.00000000e+00  6.70975500e-01]
 [ 0.00000000e+00  6.87605100e-01]
 [ 0.00000000e+00  7.04279800e-01]
 [ 0.00000000e+00  7.20958300e-01]
 [ 0.00000000e+00  7.37662800e-01]
 [ 0.00000000e+00  7.54321200e-01]
 [ 0.00000000e+00  7.70994600e-01]
 [ 0.00000000e+00  7.87643400e-01]
 [ 0.00000000e+00  8.04333700e-01]
 [ 0.00000000e+00  8.20963900e-01]
 [ 0.00000000e+00  8.37668000e-01]
 [ 0.00000000e+00  8.54308700e-01]
 [ 0.00000000e+00  8.70993800e-01]
 [ 0.00000000e+00  8.87644600e-01]
 [ 0.00000000e+00  9.04178500e-01]
 [ 0.00000000e+00  9.20961100e-01]
 [ 0.00000000e+00  9.37655800e-01]
 [ 0.00000000e+00  9.54316300e-01]
 [ 0.00000000e+00  9.70979600e-01]
 [ 0.00000000e+00  9.87503000e-01]
 [ 0.00000000e+00  1.00417990e+00]
 [ 0.00000000e+00  1.02080780e+00]
 [ 0.00000000e+00  1.03760840e+00]
 [ 0.00000000e+00  1.05431580e+00]
 [ 0.00000000e+00  1.07098390e+00]
 [ 0.00000000e+00  1.08764410e+00]
 [ 0.00000000e+00  1.10433760e+00]
 [ 0.00000000e+00  1.12096910e+00]
 [ 0.00000000e+00  1.13766710e+00]
 [ 0.00000000e+00  1.15431680e+00]
 [ 1.84037619e-01  1.17098610e+00]
 [ 3.09183200e-01  1.18766710e+00]
 [ 4.19605772e-01  1.20433740e+00]
 [ 5.30028344e-01  1.22097480e+00]
 [ 6.03643391e-01  1.23765020e+00]
 [ 6.55173925e-01  1.25477230e+00]
 [ 7.36150477e-01  1.27139670e+00]
 [ 8.02404020e-01  1.28817110e+00]
 [ 8.39211544e-01  1.30423690e+00]
 [ 8.76019068e-01  1.32086980e+00]
 [ 8.90742077e-01  1.33767540e+00]
 [ 8.98103582e-01  1.35426690e+00]
 [ 9.12826592e-01  1.37085340e+00]
 [ 9.49634116e-01  1.38752350e+00]
 [ 9.79080135e-01  1.40432570e+00]
 [ 1.00000000e+00  1.42097440e+00]
 [ 1.00000000e+00  1.43767260e+00]
 [ 1.00000000e+00  1.45433510e+00]
 [ 1.00000000e+00  1.47083950e+00]
 [ 1.00000000e+00  1.48766280e+00]
 [ 1.00000000e+00  1.50432660e+00]
 [ 1.00000000e+00  1.52096870e+00]
 [ 1.00000000e+00  1.53766760e+00]
 [ 1.00000000e+00  1.55432230e+00]
 [ 1.00000000e+00  1.57098970e+00]
 [ 1.00000000e+00  1.58766480e+00]
 [ 1.00000000e+00  1.60431950e+00]
 [ 1.00000000e+00  1.62097210e+00]
 [ 9.49634116e-01  1.63765050e+00]
 [ 9.12826592e-01  1.65433330e+00]
 [ 8.17127030e-01  1.67081450e+00]
 [ 6.69896934e-01  1.68759360e+00]
 [ 5.59474363e-01  1.70428300e+00]
 [ 4.41690286e-01  1.72097680e+00]
 [ 3.38629219e-01  1.73768160e+00]
 [ 2.79737181e-01  1.75433380e+00]
 [ 2.20845143e-01  1.77096440e+00]
 [ 1.84037619e-01  1.78766410e+00]
 [ 1.39868591e-01  1.80430060e+00]
 [ 9.56995620e-02  1.82086850e+00]
 [ 2.94460191e-02  1.83766880e+00]
 [-1.47230095e-02  1.85432620e+00]
 [-8.83380573e-02  1.87083300e+00]
 [-1.61953105e-01  1.88752480e+00]
 [-2.79737181e-01  1.90433170e+00]
 [-4.19605772e-01  1.92098060e+00]
 [-4.85859315e-01  1.93810910e+00]
 [-5.96281887e-01  1.95479150e+00]
 [-7.06704458e-01  1.97145800e+00]
 [-8.09765525e-01  1.98812130e+00]
 [-9.27549601e-01  2.00479090e+00]
 [-1.00000000e+00  2.02100960e+00]
 [-1.00000000e+00  2.03810190e+00]
 [-1.00000000e+00  2.05477330e+00]
 [-1.00000000e+00  2.07142880e+00]
 [-1.00000000e+00  2.08810410e+00]
 [-1.00000000e+00  2.10479020e+00]
 [-1.00000000e+00  2.12145740e+00]
 [-1.00000000e+00  2.13812400e+00]
 [-1.00000000e+00  2.15479080e+00]
 [-1.00000000e+00  2.17145850e+00]
 [-1.00000000e+00  2.18766390e+00]
 [-1.00000000e+00  2.20477430e+00]
 [-1.00000000e+00  2.22146210e+00]
 [-1.00000000e+00  2.23812530e+00]
 [-1.00000000e+00  2.25478690e+00]
 [-1.00000000e+00  2.27145750e+00]
 [-1.00000000e+00  2.28811540e+00]
 [-1.00000000e+00  2.30479360e+00]
 [-1.00000000e+00  2.32146600e+00]
 [-1.00000000e+00  2.33812510e+00]
 [-1.00000000e+00  2.35480520e+00]
 [-1.00000000e+00  2.37146220e+00]
 [-1.00000000e+00  2.38812100e+00]
 [-1.00000000e+00  2.40479590e+00]
 [-1.00000000e+00  2.42146000e+00]
 [-9.49634116e-01  2.43811120e+00]
 [-8.76019068e-01  2.45480080e+00]
 [-8.09765525e-01  2.47144690e+00]
 [-7.28788972e-01  2.48811490e+00]
 [-6.40450915e-01  2.50480200e+00]
 [-5.59474363e-01  2.52146120e+00]
 [-4.85859315e-01  2.53813340e+00]
 [-4.19605772e-01  2.55432350e+00]
 [-3.82798248e-01  2.57082750e+00]
 [-3.53352229e-01  2.58765370e+00]
 [-3.31267715e-01  2.60434570e+00]
 [-2.94460191e-01  2.62099180e+00]
 [-2.35568153e-01  2.63767480e+00]
 [-1.76676115e-01  2.65434740e+00]
 [-1.47230095e-01  2.67082870e+00]
 [-1.32507086e-01  2.68752780e+00]
 [-1.10422572e-01  2.70435210e+00]
 [-1.03061067e-01  2.72099080e+00]
 [-9.56995620e-02  2.73769310e+00]
 [-8.09765525e-02  2.75432660e+00]
 [-7.36150477e-02  2.77103560e+00]
 [-7.36150477e-02  2.78767820e+00]
 [-7.36150477e-02  2.80435880e+00]
 [-7.36150477e-02  2.82146500e+00]
 [-5.88920382e-02  2.83814370e+00]
 [-3.68075239e-02  2.85480780e+00]
 [-2.94460191e-02  2.87145350e+00]
 [-2.20845143e-02  2.88812140e+00]
 [-2.20845143e-02  2.90480190e+00]
 [-2.20845143e-02  2.92147540e+00]
 [-2.20845143e-02  2.93813670e+00]
 [-2.20845143e-02  2.95482150e+00]
 [-2.20845143e-02  2.97146730e+00]
 [-2.20845143e-02  2.98813970e+00]
 [-2.20845143e-02  3.00482200e+00]
 [-2.20845143e-02  3.02147140e+00]
 [-2.20845143e-02  3.03813690e+00]
 [-2.20845143e-02  3.05480220e+00]
 [-2.20845143e-02  3.07147410e+00]
 [-2.20845143e-02  3.08813340e+00]
 [-2.20845143e-02  3.10480400e+00]
 [-2.20845143e-02  3.12147540e+00]
 [-2.20845143e-02  3.13814530e+00]
 [-2.20845143e-02  3.15433470e+00]
 [-2.20845143e-02  3.17146320e+00]
 [-2.20845143e-02  3.18813720e+00]
 [-2.20845143e-02  3.20437240e+00]
 [-2.20845143e-02  3.22101350e+00]
 [-2.20845143e-02  3.23768480e+00]
 [-2.20845143e-02  3.25434560e+00]
 [-2.20845143e-02  3.27102280e+00]
 [-2.20845143e-02  3.28769640e+00]
 [-2.20845143e-02  3.30421700e+00]
 [-2.20845143e-02  3.32100400e+00]
 [-2.20845143e-02  3.33773360e+00]
 [-2.20845143e-02  3.35433370e+00]
 [-2.20845143e-02  3.37104000e+00]
 [-2.20845143e-02  3.38770500e+00]
 [-2.20845143e-02  3.40436310e+00]
 [-2.20845143e-02  3.42100650e+00]
 [-2.20845143e-02  3.43771430e+00]
 [-2.20845143e-02  3.45435430e+00]
 [-2.20845143e-02  3.47096500e+00]
 [-2.20845143e-02  3.48767060e+00]
 [-2.20845143e-02  3.50435250e+00]
 [-2.20845143e-02  3.52100390e+00]
 [-2.20845143e-02  3.53769950e+00]
 [-2.20845143e-02  3.55435200e+00]
 [-2.20845143e-02  3.57103820e+00]
 [-2.20845143e-02  3.58769670e+00]
 [-2.20845143e-02  3.60482290e+00]
 [-2.20845143e-02  3.62148220e+00]
 [-2.20845143e-02  3.63816120e+00]
 [-2.20845143e-02  3.65480880e+00]
 [-2.20845143e-02  3.67148540e+00]
 [-2.20845143e-02  3.68814830e+00]
 [-2.20845143e-02  3.70481690e+00]
 [-2.20845143e-02  3.72148870e+00]
 [-2.20845143e-02  3.73815350e+00]
 [-2.20845143e-02  3.75481570e+00]
 [-2.20845143e-02  3.77148420e+00]
 [-2.20845143e-02  3.78814690e+00]
 [-2.20845143e-02  3.80481920e+00]
 [-2.20845143e-02  3.82148530e+00]
 [-2.20845143e-02  3.83815400e+00]
 [-2.20845143e-02  3.85481480e+00]
 [-2.20845143e-02  3.87148720e+00]
 [-2.20845143e-02  3.88814950e+00]
 [-2.20845143e-02  3.90481780e+00]
 [-2.20845143e-02  3.92148350e+00]
 [-2.20845143e-02  3.93815510e+00]
 [-2.20845143e-02  3.95482640e+00]
 [-2.20845143e-02  3.97149210e+00]
 [-2.20845143e-02  3.98815160e+00]
 [-2.20845143e-02  4.00481540e+00]
 [-2.20845143e-02  4.02148640e+00]
 [-2.20845143e-02  4.03815300e+00]
 [-2.20845143e-02  4.05481900e+00]
 [-2.20845143e-02  4.07149190e+00]
 [-2.20845143e-02  4.08815110e+00]
 [-2.20845143e-02  4.10482170e+00]
 [-2.20845143e-02  4.12148900e+00]
 [-2.20845143e-02  4.13815570e+00]
 [-2.20845143e-02  4.15482240e+00]
 [-2.20845143e-02  4.17149080e+00]
 [-2.20845143e-02  4.18815190e+00]
 [-2.20845143e-02  4.20482690e+00]
 [-2.20845143e-02  4.22149040e+00]
 [-2.20845143e-02  4.23815460e+00]
 [-2.20845143e-02  4.25482890e+00]
 [-2.20845143e-02  4.27149870e+00]
 [-2.20845143e-02  4.28815790e+00]
 [-2.20845143e-02  4.30483170e+00]
 [-2.20845143e-02  4.32149020e+00]
 [-2.20845143e-02  4.33815840e+00]
 [-2.20845143e-02  4.35482230e+00]
 [-2.20845143e-02  4.37150390e+00]
 [-2.20845143e-02  4.38816030e+00]
 [-2.20845143e-02  4.40482780e+00]
 [-2.20845143e-02  4.42149600e+00]
 [-2.20845143e-02  4.43816040e+00]
 [-2.20845143e-02  4.45482370e+00]
 [-2.20845143e-02  4.47149520e+00]
 [-2.20845143e-02  4.48815830e+00]
 [-2.20845143e-02  4.50483280e+00]
 [-2.20845143e-02  4.52149430e+00]
 [-2.20845143e-02  4.53816190e+00]
 [-2.20845143e-02  4.55482800e+00]
 [-2.20845143e-02  4.57149680e+00]
 [-2.20845143e-02  4.58815050e+00]
 [-2.20845143e-02  4.60482810e+00]
 [-2.20845143e-02  4.62149650e+00]
 [-2.20845143e-02  4.63816420e+00]
 [-2.20845143e-02  4.65483110e+00]
 [-2.20845143e-02  4.67150810e+00]
 [-2.20845143e-02  4.68816290e+00]
 [-2.20845143e-02  4.70483590e+00]
 [-2.20845143e-02  4.72149600e+00]
 [-2.20845143e-02  4.73816770e+00]
 [-2.20845143e-02  4.75483220e+00]
 [-2.20845143e-02  4.77150020e+00]
 [-2.20845143e-02  4.78816750e+00]
 [-2.20845143e-02  4.80483430e+00]
 [-2.20845143e-02  4.82150170e+00]
 [-2.20845143e-02  4.83816680e+00]
 [-2.20845143e-02  4.85483810e+00]
 [-2.20845143e-02  4.87150360e+00]
 [-2.20845143e-02  4.88816660e+00]
 [-2.20845143e-02  4.90483280e+00]
 [-2.20845143e-02  4.92149930e+00]
 [-2.20845143e-02  4.93817940e+00]
 [-2.20845143e-02  4.95483530e+00]
 [-2.20845143e-02  4.97150340e+00]
 [-2.20845143e-02  4.98816700e+00]
 [-2.20845143e-02  5.00483120e+00]
 [-2.20845143e-02  5.02150310e+00]
 [-2.20845143e-02  5.03817750e+00]
 [-2.20845143e-02  5.05483470e+00]
 [-2.20845143e-02  5.07150560e+00]
 [-2.20845143e-02  5.08816710e+00]
 [-2.20845143e-02  5.10483280e+00]
 [-2.20845143e-02  5.12150360e+00]
 [-2.20845143e-02  5.13817430e+00]
 [-2.20845143e-02  5.15484210e+00]
 [-2.20845143e-02  5.17150900e+00]
 [-2.20845143e-02  5.18817670e+00]
 [-2.20845143e-02  5.20483710e+00]
 [-2.20845143e-02  5.22150240e+00]
 [-2.20845143e-02  5.23817390e+00]
 [-2.20845143e-02  5.25484160e+00]
 [-2.20845143e-02  5.27151760e+00]
 [-2.20845143e-02  5.28817440e+00]
 [-2.20845143e-02  5.30484200e+00]
 [-2.20845143e-02  5.32150640e+00]
 [-2.20845143e-02  5.33817600e+00]
 [-2.20845143e-02  5.35484340e+00]
 [-2.20845143e-02  5.37151330e+00]
 [-2.20845143e-02  5.38817620e+00]
 [-2.20845143e-02  5.40484200e+00]
 [-2.20845143e-02  5.42151060e+00]
 [-2.20845143e-02  5.43817920e+00]
 [-2.20845143e-02  5.45484100e+00]
 [-2.20845143e-02  5.47151100e+00]
 [-2.20845143e-02  5.48817540e+00]
 [-2.20845143e-02  5.50484930e+00]
 [-2.20845143e-02  5.52150660e+00]
 [-2.20845143e-02  5.53817690e+00]
 [-2.20845143e-02  5.55484580e+00]
 [-2.20845143e-02  5.57152080e+00]
 [-2.20845143e-02  5.58814340e+00]
 [-2.20845143e-02  5.60483040e+00]
 [-2.20845143e-02  5.62150930e+00]
 [-2.20845143e-02  5.63818330e+00]
 [-2.20845143e-02  5.65484610e+00]
 [-2.20845143e-02  5.67151660e+00]
 [-2.20845143e-02  5.68818060e+00]
 [-2.20845143e-02  5.70484790e+00]
 [-2.20845143e-02  5.72151350e+00]
 [-2.20845143e-02  5.73818380e+00]
 [-2.20845143e-02  5.75485350e+00]
 [-2.20845143e-02  5.77151810e+00]
 [-2.20845143e-02  5.78818610e+00]
 [-2.20845143e-02  5.80484690e+00]
 [-2.20845143e-02  5.82151210e+00]
 [-2.20845143e-02  5.83818100e+00]
 [-2.20845143e-02  5.85484890e+00]
 [-2.20845143e-02  5.87151760e+00]
 [-2.20845143e-02  5.88818150e+00]
 [-2.20845143e-02  5.90485760e+00]
 [-2.20845143e-02  5.92151300e+00]
 [-2.20845143e-02  5.93818400e+00]
 [-2.20845143e-02  5.95485100e+00]
 [-2.20845143e-02  5.97152210e+00]
 [-2.20845143e-02  5.98818090e+00]
 [-2.20845143e-02  6.00485380e+00]
 [-2.20845143e-02  6.02151560e+00]
 [-2.20845143e-02  6.03818690e+00]]","[[1.40000000e+02 6.50000584e-06]
 [1.40000000e+02 2.09951000e-02]
 [1.40000000e+02 3.76419000e-02]
 [1.40000000e+02 5.43030000e-02]
 [1.40000000e+02 7.09719000e-02]
 [1.40000000e+02 8.76628000e-02]
 [1.40000000e+02 1.04313800e-01]
 [1.40000000e+02 1.20950900e-01]
 [1.40000000e+02 1.37638600e-01]
 [1.40000000e+02 1.54295300e-01]
 [1.40000000e+02 1.70968500e-01]
 [1.40000000e+02 1.87619000e-01]
 [1.40000000e+02 2.04276000e-01]
 [1.40000000e+02 2.20791800e-01]
 [1.40000000e+02 2.37596300e-01]
 [1.40000000e+02 2.54312900e-01]
 [1.40000000e+02 2.70984100e-01]
 [1.40000000e+02 2.87637200e-01]
 [1.40000000e+02 3.04270100e-01]
 [1.40000000e+02 3.20954900e-01]
 [1.40000000e+02 3.37647200e-01]
 [1.40000000e+02 3.54303200e-01]
 [1.40000000e+02 3.70978400e-01]
 [1.40000000e+02 3.87636100e-01]
 [1.40000000e+02 4.04197400e-01]
 [1.40000000e+02 4.20958100e-01]
 [1.40000000e+02 4.37660100e-01]
 [1.40000000e+02 4.54306800e-01]
 [1.40000000e+02 4.70976100e-01]
 [1.40000000e+02 4.87636200e-01]
 [1.40000000e+02 5.04271100e-01]
 [1.40000000e+02 5.20957800e-01]
 [1.40000000e+02 5.37662400e-01]
 [1.40000000e+02 5.54294000e-01]
 [1.40000000e+02 5.70987700e-01]
 [1.40000000e+02 5.87629100e-01]
 [1.40000000e+02 6.04176500e-01]
 [1.40000000e+02 6.20957900e-01]
 [1.40000000e+02 6.37663600e-01]
 [1.40000000e+02 6.54310500e-01]
 [1.40000000e+02 6.70975500e-01]
 [1.40000000e+02 6.87605100e-01]
 [1.40000000e+02 7.04279800e-01]
 [1.40000000e+02 7.20958300e-01]
 [1.40000000e+02 7.37662800e-01]
 [1.40000000e+02 7.54321200e-01]
 [1.40000000e+02 7.70994600e-01]
 [1.40000000e+02 7.87643400e-01]
 [1.40000000e+02 8.04333700e-01]
 [1.40000000e+02 8.20963900e-01]
 [1.40000000e+02 8.37668000e-01]
 [1.40000000e+02 8.54308700e-01]
 [1.40000000e+02 8.70993800e-01]
 [1.40000000e+02 8.87644600e-01]
 [1.40000000e+02 9.04178500e-01]
 [1.40000000e+02 9.20961100e-01]
 [1.40000000e+02 9.37655800e-01]
 [1.40000000e+02 9.54316300e-01]
 [1.40000000e+02 9.70979600e-01]
 [1.40000000e+02 9.87503000e-01]
 [1.40000000e+02 1.00417990e+00]
 [1.40000000e+02 1.02080780e+00]
 [1.40000000e+02 1.03760840e+00]
 [1.40000000e+02 1.05431580e+00]
 [1.40000000e+02 1.07098390e+00]
 [1.40000000e+02 1.08764410e+00]
 [1.40000000e+02 1.10433760e+00]
 [1.40000000e+02 1.12096910e+00]
 [1.40000000e+02 1.13766710e+00]
 [1.40000000e+02 1.15431680e+00]
 [1.40000000e+02 1.17098610e+00]
 [1.40000000e+02 1.18766710e+00]
 [1.40000000e+02 1.20433740e+00]
 [1.40846573e+02 1.22097480e+00]
 [1.73016349e+02 1.23765020e+00]
 [2.11112136e+02 1.25477230e+00]
 [2.35662755e+02 1.27139670e+00]
 [2.55000000e+02 1.28817110e+00]
 [2.55000000e+02 1.30423690e+00]
 [2.55000000e+02 1.32086980e+00]
 [2.55000000e+02 1.33767540e+00]
 [2.55000000e+02 1.35426690e+00]
 [2.55000000e+02 1.37085340e+00]
 [2.55000000e+02 1.38752350e+00]
 [2.55000000e+02 1.40432570e+00]
 [2.55000000e+02 1.42097440e+00]
 [2.55000000e+02 1.43767260e+00]
 [2.55000000e+02 1.45433510e+00]
 [2.55000000e+02 1.47083950e+00]
 [2.55000000e+02 1.48766280e+00]
 [2.55000000e+02 1.50432660e+00]
 [2.55000000e+02 1.52096870e+00]
 [2.55000000e+02 1.53766760e+00]
 [2.55000000e+02 1.55432230e+00]
 [2.55000000e+02 1.57098970e+00]
 [2.55000000e+02 1.58766480e+00]
 [2.55000000e+02 1.60431950e+00]
 [2.55000000e+02 1.62097210e+00]
 [2.55000000e+02 1.63765050e+00]
 [2.55000000e+02 1.65433330e+00]
 [2.55000000e+02 1.67081450e+00]
 [2.55000000e+02 1.68759360e+00]
 [2.55000000e+02 1.70428300e+00]
 [2.55000000e+02 1.72097680e+00]
 [2.55000000e+02 1.73768160e+00]
 [2.55000000e+02 1.75433380e+00]
 [2.55000000e+02 1.77096440e+00]
 [2.55000000e+02 1.78766410e+00]
 [2.55000000e+02 1.80430060e+00]
 [2.55000000e+02 1.82086850e+00]
 [2.55000000e+02 1.83766880e+00]
 [2.55000000e+02 1.85432620e+00]
 [2.55000000e+02 1.87083300e+00]
 [2.55000000e+02 1.88752480e+00]
 [2.55000000e+02 1.90433170e+00]
 [2.54287362e+02 1.92098060e+00]
 [2.52594215e+02 1.93810910e+00]
 [2.52594215e+02 1.95479150e+00]
 [2.52594215e+02 1.97145800e+00]
 [2.52594215e+02 1.98812130e+00]
 [2.49207923e+02 2.00479090e+00]
 [2.39049047e+02 2.02100960e+00]
 [2.32276462e+02 2.03810190e+00]
 [2.25503878e+02 2.05477330e+00]
 [2.17884720e+02 2.07142880e+00]
 [2.07725844e+02 2.08810410e+00]
 [1.99260113e+02 2.10479020e+00]
 [1.87408091e+02 2.12145740e+00]
 [1.73862922e+02 2.13812400e+00]
 [1.57778034e+02 2.15479080e+00]
 [1.43386292e+02 2.17145850e+00]
 [1.27301404e+02 2.18766390e+00]
 [1.18835674e+02 2.20477430e+00]
 [1.12063089e+02 2.22146210e+00]
 [1.07830224e+02 2.23812530e+00]
 [1.05290505e+02 2.25478690e+00]
 [1.03597359e+02 2.27145750e+00]
 [9.76713476e+01 2.28811540e+00]
 [9.42850554e+01 2.30479360e+00]
 [8.92056171e+01 2.32146600e+00]
 [8.66658979e+01 2.33812510e+00]
 [7.90467405e+01 2.35480520e+00]
 [6.97344370e+01 2.37146220e+00]
 [5.95755604e+01 2.38812100e+00]
 [5.28029760e+01 2.40479590e+00]
 [4.60303916e+01 2.42146000e+00]
 [4.17975263e+01 2.43811120e+00]
 [4.01043802e+01 2.45480080e+00]
 [3.92578072e+01 2.47144690e+00]
 [3.67180881e+01 2.48811490e+00]
 [3.33317959e+01 2.50480200e+00]
 [2.74057845e+01 2.52146120e+00]
 [2.50000000e+01 2.53813340e+00]
 [2.50000000e+01 2.55432350e+00]
 [2.50000000e+01 2.57082750e+00]
 [2.50000000e+01 2.58765370e+00]
 [2.50000000e+01 2.60434570e+00]
 [2.50000000e+01 2.62099180e+00]
 [2.50000000e+01 2.63767480e+00]
 [2.50000000e+01 2.65434740e+00]
 [2.50000000e+01 2.67082870e+00]
 [2.50000000e+01 2.68752780e+00]
 [2.50000000e+01 2.70435210e+00]
 [2.50000000e+01 2.72099080e+00]
 [2.50000000e+01 2.73769310e+00]
 [2.50000000e+01 2.75432660e+00]
 [2.50000000e+01 2.77103560e+00]
 [2.50000000e+01 2.78767820e+00]
 [2.90989306e+01 2.80435880e+00]
 [4.26440994e+01 2.82146500e+00]
 [5.28029760e+01 2.83814370e+00]
 [6.12687065e+01 2.85480780e+00]
 [6.71947178e+01 2.87145350e+00]
 [8.07398866e+01 2.88812140e+00]
 [8.66658979e+01 2.90480190e+00]
 [9.00521901e+01 2.92147540e+00]
 [9.25919093e+01 2.93813670e+00]
 [9.34384823e+01 2.95482150e+00]
 [9.51316284e+01 2.97146730e+00]
 [9.76713476e+01 2.98813970e+00]
 [1.00211067e+02 3.00482200e+00]
 [1.03597359e+02 3.02147140e+00]
 [1.06983651e+02 3.03813690e+00]
 [1.06983651e+02 3.05480220e+00]
 [1.06983651e+02 3.07147410e+00]
 [1.11216516e+02 3.08813340e+00]
 [1.17989101e+02 3.10480400e+00]
 [1.27301404e+02 3.12147540e+00]
 [1.39153427e+02 3.13814530e+00]
 [1.44232865e+02 3.15433470e+00]
 [1.47619157e+02 3.17146320e+00]
 [1.48465730e+02 3.18813720e+00]
 [1.48465730e+02 3.20437240e+00]
 [1.48465730e+02 3.22101350e+00]
 [1.48465730e+02 3.23768480e+00]
 [1.48465730e+02 3.25434560e+00]
 [1.48465730e+02 3.27102280e+00]
 [1.48465730e+02 3.28769640e+00]
 [1.48465730e+02 3.30421700e+00]
 [1.48465730e+02 3.32100400e+00]
 [1.48465730e+02 3.33773360e+00]
 [1.48465730e+02 3.35433370e+00]
 [1.48465730e+02 3.37104000e+00]
 [1.48465730e+02 3.38770500e+00]
 [1.48465730e+02 3.40436310e+00]
 [1.48465730e+02 3.42100650e+00]
 [1.48465730e+02 3.43771430e+00]
 [1.48465730e+02 3.45435430e+00]
 [1.48465730e+02 3.47096500e+00]
 [1.48465730e+02 3.48767060e+00]
 [1.48465730e+02 3.50435250e+00]
 [1.48465730e+02 3.52100390e+00]
 [1.48465730e+02 3.53769950e+00]
 [1.48465730e+02 3.55435200e+00]
 [1.48465730e+02 3.57103820e+00]
 [1.51852023e+02 3.58769670e+00]
 [1.51852023e+02 3.60482290e+00]
 [1.51852023e+02 3.62148220e+00]
 [1.51852023e+02 3.63816120e+00]
 [1.51852023e+02 3.65480880e+00]
 [1.51852023e+02 3.67148540e+00]
 [1.51852023e+02 3.68814830e+00]
 [1.51852023e+02 3.70481690e+00]
 [1.51852023e+02 3.72148870e+00]
 [1.51852023e+02 3.73815350e+00]
 [1.51852023e+02 3.75481570e+00]
 [1.51852023e+02 3.77148420e+00]
 [1.51852023e+02 3.78814690e+00]
 [1.51852023e+02 3.80481920e+00]
 [1.51852023e+02 3.82148530e+00]
 [1.51852023e+02 3.83815400e+00]
 [1.51852023e+02 3.85481480e+00]
 [1.51852023e+02 3.87148720e+00]
 [1.51852023e+02 3.88814950e+00]
 [1.51852023e+02 3.90481780e+00]
 [1.51852023e+02 3.92148350e+00]
 [1.51852023e+02 3.93815510e+00]
 [1.51852023e+02 3.95482640e+00]
 [1.51852023e+02 3.97149210e+00]
 [1.51852023e+02 3.98815160e+00]
 [1.51852023e+02 4.00481540e+00]
 [1.51852023e+02 4.02148640e+00]
 [1.51852023e+02 4.03815300e+00]
 [1.51852023e+02 4.05481900e+00]
 [1.51852023e+02 4.07149190e+00]
 [1.52698596e+02 4.08815110e+00]
 [1.52698596e+02 4.10482170e+00]
 [1.52698596e+02 4.12148900e+00]
 [1.52698596e+02 4.13815570e+00]
 [1.52698596e+02 4.15482240e+00]
 [1.52698596e+02 4.17149080e+00]
 [1.52698596e+02 4.18815190e+00]
 [1.52698596e+02 4.20482690e+00]
 [1.52698596e+02 4.22149040e+00]
 [1.52698596e+02 4.23815460e+00]
 [1.52698596e+02 4.25482890e+00]
 [1.52698596e+02 4.27149870e+00]
 [1.52698596e+02 4.28815790e+00]
 [1.52698596e+02 4.30483170e+00]
 [1.52698596e+02 4.32149020e+00]
 [1.52698596e+02 4.33815840e+00]
 [1.52698596e+02 4.35482230e+00]
 [1.52698596e+02 4.37150390e+00]
 [1.52698596e+02 4.38816030e+00]
 [1.52698596e+02 4.40482780e+00]
 [1.52698596e+02 4.42149600e+00]
 [1.52698596e+02 4.43816040e+00]
 [1.52698596e+02 4.45482370e+00]
 [1.52698596e+02 4.47149520e+00]
 [1.52698596e+02 4.48815830e+00]
 [1.52698596e+02 4.50483280e+00]
 [1.52698596e+02 4.52149430e+00]
 [1.52698596e+02 4.53816190e+00]
 [1.52698596e+02 4.55482800e+00]
 [1.52698596e+02 4.57149680e+00]
 [1.52698596e+02 4.58815050e+00]
 [1.52698596e+02 4.60482810e+00]
 [1.52698596e+02 4.62149650e+00]
 [1.52698596e+02 4.63816420e+00]
 [1.52698596e+02 4.65483110e+00]
 [1.52698596e+02 4.67150810e+00]
 [1.52698596e+02 4.68816290e+00]
 [1.52698596e+02 4.70483590e+00]
 [1.52698596e+02 4.72149600e+00]
 [1.52698596e+02 4.73816770e+00]
 [1.52698596e+02 4.75483220e+00]
 [1.52698596e+02 4.77150020e+00]
 [1.52698596e+02 4.78816750e+00]
 [1.52698596e+02 4.80483430e+00]
 [1.52698596e+02 4.82150170e+00]
 [1.52698596e+02 4.83816680e+00]
 [1.52698596e+02 4.85483810e+00]
 [1.52698596e+02 4.87150360e+00]
 [1.52698596e+02 4.88816660e+00]
 [1.52698596e+02 4.90483280e+00]
 [1.52698596e+02 4.92149930e+00]
 [1.52698596e+02 4.93817940e+00]
 [1.52698596e+02 4.95483530e+00]
 [1.52698596e+02 4.97150340e+00]
 [1.52698596e+02 4.98816700e+00]
 [1.52698596e+02 5.00483120e+00]
 [1.52698596e+02 5.02150310e+00]
 [1.52698596e+02 5.03817750e+00]
 [1.52698596e+02 5.05483470e+00]
 [1.52698596e+02 5.07150560e+00]
 [1.52698596e+02 5.08816710e+00]
 [1.52698596e+02 5.10483280e+00]
 [1.52698596e+02 5.12150360e+00]
 [1.52698596e+02 5.13817430e+00]
 [1.52698596e+02 5.15484210e+00]
 [1.52698596e+02 5.17150900e+00]
 [1.52698596e+02 5.18817670e+00]
 [1.52698596e+02 5.20483710e+00]
 [1.52698596e+02 5.22150240e+00]
 [1.52698596e+02 5.23817390e+00]
 [1.52698596e+02 5.25484160e+00]
 [1.52698596e+02 5.27151760e+00]
 [1.52698596e+02 5.28817440e+00]
 [1.52698596e+02 5.30484200e+00]
 [1.52698596e+02 5.32150640e+00]
 [1.52698596e+02 5.33817600e+00]
 [1.52698596e+02 5.35484340e+00]
 [1.52698596e+02 5.37151330e+00]
 [1.52698596e+02 5.38817620e+00]
 [1.52698596e+02 5.40484200e+00]
 [1.52698596e+02 5.42151060e+00]
 [1.52698596e+02 5.43817920e+00]
 [1.52698596e+02 5.45484100e+00]
 [1.52698596e+02 5.47151100e+00]
 [1.52698596e+02 5.48817540e+00]
 [1.52698596e+02 5.50484930e+00]
 [1.52698596e+02 5.52150660e+00]
 [1.52698596e+02 5.53817690e+00]
 [1.52698596e+02 5.55484580e+00]
 [1.52698596e+02 5.57152080e+00]
 [1.52698596e+02 5.58814340e+00]
 [1.52698596e+02 5.60483040e+00]
 [1.52698596e+02 5.62150930e+00]
 [1.52698596e+02 5.63818330e+00]
 [1.52698596e+02 5.65484610e+00]
 [1.52698596e+02 5.67151660e+00]
 [1.52698596e+02 5.68818060e+00]
 [1.52698596e+02 5.70484790e+00]
 [1.52698596e+02 5.72151350e+00]
 [1.52698596e+02 5.73818380e+00]
 [1.52698596e+02 5.75485350e+00]
 [1.52698596e+02 5.77151810e+00]
 [1.52698596e+02 5.78818610e+00]
 [1.52698596e+02 5.80484690e+00]
 [1.52698596e+02 5.82151210e+00]
 [1.52698596e+02 5.83818100e+00]
 [1.52698596e+02 5.85484890e+00]
 [1.52698596e+02 5.87151760e+00]
 [1.52698596e+02 5.88818150e+00]
 [1.52698596e+02 5.90485760e+00]
 [1.52698596e+02 5.92151300e+00]
 [1.52698596e+02 5.93818400e+00]
 [1.52698596e+02 5.95485100e+00]
 [1.52698596e+02 5.97152210e+00]
 [1.52698596e+02 5.98818090e+00]
 [1.52698596e+02 6.00485380e+00]
 [1.52698596e+02 6.02151560e+00]
 [1.52698596e+02 6.03818690e+00]]","[[ 0.00000000e+00  6.50000584e-06]
 [ 0.00000000e+00  2.09951000e-02]
 [ 0.00000000e+00  3.76419000e-02]
 [ 0.00000000e+00  5.43030000e-02]
 [ 0.00000000e+00  7.09719000e-02]
 [ 0.00000000e+00  8.76628000e-02]
 [ 0.00000000e+00  1.04313800e-01]
 [ 0.00000000e+00  1.20950900e-01]
 [ 0.00000000e+00  1.37638600e-01]
 [ 0.00000000e+00  1.54295300e-01]
 [ 0.00000000e+00  1.70968500e-01]
 [ 0.00000000e+00  1.87619000e-01]
 [ 0.00000000e+00  2.04276000e-01]
 [ 0.00000000e+00  2.20791800e-01]
 [ 0.00000000e+00  2.37596300e-01]
 [ 0.00000000e+00  2.54312900e-01]
 [ 0.00000000e+00  2.70984100e-01]
 [ 0.00000000e+00  2.87637200e-01]
 [ 0.00000000e+00  3.04270100e-01]
 [ 0.00000000e+00  3.20954900e-01]
 [ 0.00000000e+00  3.37647200e-01]
 [ 0.00000000e+00  3.54303200e-01]
 [ 0.00000000e+00  3.70978400e-01]
 [ 0.00000000e+00  3.87636100e-01]
 [ 0.00000000e+00  4.04197400e-01]
 [ 0.00000000e+00  4.20958100e-01]
 [ 0.00000000e+00  4.37660100e-01]
 [ 0.00000000e+00  4.54306800e-01]
 [ 0.00000000e+00  4.70976100e-01]
 [ 0.00000000e+00  4.87636200e-01]
 [ 0.00000000e+00  5.04271100e-01]
 [ 0.00000000e+00  5.20957800e-01]
 [ 0.00000000e+00  5.37662400e-01]
 [ 0.00000000e+00  5.54294000e-01]
 [ 0.00000000e+00  5.70987700e-01]
 [ 0.00000000e+00  5.87629100e-01]
 [ 0.00000000e+00  6.04176500e-01]
 [ 0.00000000e+00  6.20957900e-01]
 [ 0.00000000e+00  6.37663600e-01]
 [ 0.00000000e+00  6.54310500e-01]
 [ 0.00000000e+00  6.70975500e-01]
 [ 0.00000000e+00  6.87605100e-01]
 [ 0.00000000e+00  7.04279800e-01]
 [ 0.00000000e+00  7.20958300e-01]
 [ 0.00000000e+00  7.37662800e-01]
 [ 0.00000000e+00  7.54321200e-01]
 [ 0.00000000e+00  7.70994600e-01]
 [ 0.00000000e+00  7.87643400e-01]
 [ 0.00000000e+00  8.04333700e-01]
 [ 0.00000000e+00  8.20963900e-01]
 [ 0.00000000e+00  8.37668000e-01]
 [ 0.00000000e+00  8.54308700e-01]
 [ 0.00000000e+00  8.70993800e-01]
 [ 0.00000000e+00  8.87644600e-01]
 [ 0.00000000e+00  9.04178500e-01]
 [ 0.00000000e+00  9.20961100e-01]
 [ 0.00000000e+00  9.37655800e-01]
 [ 0.00000000e+00  9.54316300e-01]
 [ 0.00000000e+00  9.70979600e-01]
 [ 0.00000000e+00  9.87503000e-01]
 [ 0.00000000e+00  1.00417990e+00]
 [ 0.00000000e+00  1.02080780e+00]
 [ 0.00000000e+00  1.03760840e+00]
 [ 0.00000000e+00  1.05431580e+00]
 [ 0.00000000e+00  1.07098390e+00]
 [ 0.00000000e+00  1.08764410e+00]
 [ 0.00000000e+00  1.10433760e+00]
 [ 0.00000000e+00  1.12096910e+00]
 [ 0.00000000e+00  1.13766710e+00]
 [ 0.00000000e+00  1.15431680e+00]
 [ 0.00000000e+00  1.17098610e+00]
 [ 0.00000000e+00  1.18766710e+00]
 [ 0.00000000e+00  1.20433740e+00]
 [ 7.36150477e-03  1.22097480e+00]
 [ 2.87098686e-01  1.23765020e+00]
 [ 6.18366401e-01  1.25477230e+00]
 [ 8.31850039e-01  1.27139670e+00]
 [ 1.00000000e+00  1.28817110e+00]
 [ 1.00000000e+00  1.30423690e+00]
 [ 1.00000000e+00  1.32086980e+00]
 [ 1.00000000e+00  1.33767540e+00]
 [ 1.00000000e+00  1.35426690e+00]
 [ 1.00000000e+00  1.37085340e+00]
 [ 1.00000000e+00  1.38752350e+00]
 [ 1.00000000e+00  1.40432570e+00]
 [ 1.00000000e+00  1.42097440e+00]
 [ 1.00000000e+00  1.43767260e+00]
 [ 1.00000000e+00  1.45433510e+00]
 [ 1.00000000e+00  1.47083950e+00]
 [ 1.00000000e+00  1.48766280e+00]
 [ 1.00000000e+00  1.50432660e+00]
 [ 1.00000000e+00  1.52096870e+00]
 [ 1.00000000e+00  1.53766760e+00]
 [ 1.00000000e+00  1.55432230e+00]
 [ 1.00000000e+00  1.57098970e+00]
 [ 1.00000000e+00  1.58766480e+00]
 [ 1.00000000e+00  1.60431950e+00]
 [ 1.00000000e+00  1.62097210e+00]
 [ 1.00000000e+00  1.63765050e+00]
 [ 1.00000000e+00  1.65433330e+00]
 [ 1.00000000e+00  1.67081450e+00]
 [ 1.00000000e+00  1.68759360e+00]
 [ 1.00000000e+00  1.70428300e+00]
 [ 1.00000000e+00  1.72097680e+00]
 [ 1.00000000e+00  1.73768160e+00]
 [ 1.00000000e+00  1.75433380e+00]
 [ 1.00000000e+00  1.77096440e+00]
 [ 1.00000000e+00  1.78766410e+00]
 [ 1.00000000e+00  1.80430060e+00]
 [ 1.00000000e+00  1.82086850e+00]
 [ 1.00000000e+00  1.83766880e+00]
 [ 1.00000000e+00  1.85432620e+00]
 [ 1.00000000e+00  1.87083300e+00]
 [ 1.00000000e+00  1.88752480e+00]
 [ 1.00000000e+00  1.90433170e+00]
 [ 9.93803144e-01  1.92098060e+00]
 [ 9.79080135e-01  1.93810910e+00]
 [ 9.79080135e-01  1.95479150e+00]
 [ 9.79080135e-01  1.97145800e+00]
 [ 9.79080135e-01  1.98812130e+00]
 [ 9.49634116e-01  2.00479090e+00]
 [ 8.61296058e-01  2.02100960e+00]
 [ 8.02404020e-01  2.03810190e+00]
 [ 7.43511982e-01  2.05477330e+00]
 [ 6.77258439e-01  2.07142880e+00]
 [ 5.88920382e-01  2.08810410e+00]
 [ 5.15305334e-01  2.10479020e+00]
 [ 4.12244267e-01  2.12145740e+00]
 [ 2.94460191e-01  2.13812400e+00]
 [ 1.54591600e-01  2.15479080e+00]
 [ 2.94460191e-02  2.17145850e+00]
 [-1.10422572e-01  2.18766390e+00]
 [-1.84037619e-01  2.20477430e+00]
 [-2.42929657e-01  2.22146210e+00]
 [-2.79737181e-01  2.23812530e+00]
 [-3.01821696e-01  2.25478690e+00]
 [-3.16544705e-01  2.27145750e+00]
 [-3.68075239e-01  2.28811540e+00]
 [-3.97521258e-01  2.30479360e+00]
 [-4.41690286e-01  2.32146600e+00]
 [-4.63774801e-01  2.33812510e+00]
 [-5.30028344e-01  2.35480520e+00]
 [-6.11004896e-01  2.37146220e+00]
 [-6.99342953e-01  2.38812100e+00]
 [-7.58234991e-01  2.40479590e+00]
 [-8.17127030e-01  2.42146000e+00]
 [-8.53934554e-01  2.43811120e+00]
 [-8.68657563e-01  2.45480080e+00]
 [-8.76019068e-01  2.47144690e+00]
 [-8.98103582e-01  2.48811490e+00]
 [-9.27549601e-01  2.50480200e+00]
 [-9.79080135e-01  2.52146120e+00]
 [-1.00000000e+00  2.53813340e+00]
 [-1.00000000e+00  2.55432350e+00]
 [-1.00000000e+00  2.57082750e+00]
 [-1.00000000e+00  2.58765370e+00]
 [-1.00000000e+00  2.60434570e+00]
 [-1.00000000e+00  2.62099180e+00]
 [-1.00000000e+00  2.63767480e+00]
 [-1.00000000e+00  2.65434740e+00]
 [-1.00000000e+00  2.67082870e+00]
 [-1.00000000e+00  2.68752780e+00]
 [-1.00000000e+00  2.70435210e+00]
 [-1.00000000e+00  2.72099080e+00]
 [-1.00000000e+00  2.73769310e+00]
 [-1.00000000e+00  2.75432660e+00]
 [-1.00000000e+00  2.77103560e+00]
 [-1.00000000e+00  2.78767820e+00]
 [-9.64357125e-01  2.80435880e+00]
 [-8.46573049e-01  2.82146500e+00]
 [-7.58234991e-01  2.83814370e+00]
 [-6.84619944e-01  2.85480780e+00]
 [-6.33089410e-01  2.87145350e+00]
 [-5.15305334e-01  2.88812140e+00]
 [-4.63774801e-01  2.90480190e+00]
 [-4.34328782e-01  2.92147540e+00]
 [-4.12244267e-01  2.93813670e+00]
 [-4.04882762e-01  2.95482150e+00]
 [-3.90159753e-01  2.97146730e+00]
 [-3.68075239e-01  2.98813970e+00]
 [-3.45990724e-01  3.00482200e+00]
 [-3.16544705e-01  3.02147140e+00]
 [-2.87098686e-01  3.03813690e+00]
 [-2.87098686e-01  3.05480220e+00]
 [-2.87098686e-01  3.07147410e+00]
 [-2.50291162e-01  3.08813340e+00]
 [-1.91399124e-01  3.10480400e+00]
 [-1.10422572e-01  3.12147540e+00]
 [-7.36150477e-03  3.13814530e+00]
 [ 3.68075239e-02  3.15433470e+00]
 [ 6.62535429e-02  3.17146320e+00]
 [ 7.36150477e-02  3.18813720e+00]
 [ 7.36150477e-02  3.20437240e+00]
 [ 7.36150477e-02  3.22101350e+00]
 [ 7.36150477e-02  3.23768480e+00]
 [ 7.36150477e-02  3.25434560e+00]
 [ 7.36150477e-02  3.27102280e+00]
 [ 7.36150477e-02  3.28769640e+00]
 [ 7.36150477e-02  3.30421700e+00]
 [ 7.36150477e-02  3.32100400e+00]
 [ 7.36150477e-02  3.33773360e+00]
 [ 7.36150477e-02  3.35433370e+00]
 [ 7.36150477e-02  3.37104000e+00]
 [ 7.36150477e-02  3.38770500e+00]
 [ 7.36150477e-02  3.40436310e+00]
 [ 7.36150477e-02  3.42100650e+00]
 [ 7.36150477e-02  3.43771430e+00]
 [ 7.36150477e-02  3.45435430e+00]
 [ 7.36150477e-02  3.47096500e+00]
 [ 7.36150477e-02  3.48767060e+00]
 [ 7.36150477e-02  3.50435250e+00]
 [ 7.36150477e-02  3.52100390e+00]
 [ 7.36150477e-02  3.53769950e+00]
 [ 7.36150477e-02  3.55435200e+00]
 [ 7.36150477e-02  3.57103820e+00]
 [ 1.03061067e-01  3.58769670e+00]
 [ 1.03061067e-01  3.60482290e+00]
 [ 1.03061067e-01  3.62148220e+00]
 [ 1.03061067e-01  3.63816120e+00]
 [ 1.03061067e-01  3.65480880e+00]
 [ 1.03061067e-01  3.67148540e+00]
 [ 1.03061067e-01  3.68814830e+00]
 [ 1.03061067e-01  3.70481690e+00]
 [ 1.03061067e-01  3.72148870e+00]
 [ 1.03061067e-01  3.73815350e+00]
 [ 1.03061067e-01  3.75481570e+00]
 [ 1.03061067e-01  3.77148420e+00]
 [ 1.03061067e-01  3.78814690e+00]
 [ 1.03061067e-01  3.80481920e+00]
 [ 1.03061067e-01  3.82148530e+00]
 [ 1.03061067e-01  3.83815400e+00]
 [ 1.03061067e-01  3.85481480e+00]
 [ 1.03061067e-01  3.87148720e+00]
 [ 1.03061067e-01  3.88814950e+00]
 [ 1.03061067e-01  3.90481780e+00]
 [ 1.03061067e-01  3.92148350e+00]
 [ 1.03061067e-01  3.93815510e+00]
 [ 1.03061067e-01  3.95482640e+00]
 [ 1.03061067e-01  3.97149210e+00]
 [ 1.03061067e-01  3.98815160e+00]
 [ 1.03061067e-01  4.00481540e+00]
