id,movie_path,dimension,hand,stimulus_type,order_emojis_slider,block,practice.thisRepN,practice.thisTrialN,practice.thisN,practice.thisIndex,trials.thisRepN,trials.thisTrialN,trials.thisN,trials.thisIndex,continuous_annotation,video_duration,valence_value,arousal_value,preference_value,engagement_value,familiarity_value,checkbox_Neutral,checkbox_Asco,checkbox_Felicidad,checkbox_Sorpresa,checkbox_Ira,checkbox_Miedo,checkbox_Tristeza,continuous_annotation_luminance,stim_value_green,stim_value,ID,Sesion,Tarea,Consumo de sustancias psicoactivas en las últimas 24 hs,Horas de sueño la noche anterior,date,exp_name,frame_rate,
99,../amsterdam_dynamic_facial_expression_set/F01-Fear-Face Forward.mp4,valence,right,LV-HA,direct,-1,0,0,0,0,,,,,"[[0.0, 0.00804650000645779], [0.0, 0.02495739998994395], [0.0, 0.04164919999311678], [0.0, 0.0581868999870494], [0.0, 0.07496669999090955], [0.0, 0.09154530000523664], [0.0, 0.10830389999318868], [0.0, 0.12488849999499507], [0.0, 0.14184409999870695], [0.0, 0.15828219999093562], [0.0, 0.17504110001027584], [0.0, 0.19164569998974912], [0.0, 0.2083670999854803], [0.0, 0.22494479999295436], [0.0, 0.2416228000074625], [0.0, 0.2582782999961637], [0.0, 0.2749040999915451], [0.0, 0.291645499994047], [0.0, 0.3080667000031099], [0.0, 0.3248766000033356], [0.0, 0.3416269999870565], [0.0, 0.35833469999488443], [0.0, 0.3751859999902081], [0.0, 0.3916429000091739], [0.0, 0.40832670000963844], [0.0, 0.4249790000030771], [0.0, 0.4416352999978699], [0.0, 0.45830329999444075], [0.0, 0.47494829999050125], [0.0, 0.49165819998597726], [0.0, 0.5082670999981929], [0.0, 0.5250921999977436], [0.0, 0.5417534000007436], [0.0, 0.5583209999895189], [0.0, 0.5752143999852706], [0.0, 0.592056199995568], [0.0, 0.6084163000050467], [0.0, 0.6251392999838572], [0.0, 0.6416730000055395], [0.0, 0.6584813999943435], [0.0, 0.6750060000049416], [0.0, 0.6918219999934081], [0.0, 0.7084626999858301], [0.0, 0.725140199996531], [0.0, 0.7417748000007123], [0.0, 0.7584869999845978], [0.0, 0.7751839999982622], [0.0, 0.7918007999833208], [0.0, 0.8084163999883458], [0.0, 0.8251295000081882], [0.0, 0.8417902000073809], [0.0, 0.8584646999952383], [0.0, 0.8751393999846186], [0.0, 0.8918013999937102], [0.0, 0.9085068999847863], [0.0, 0.9251541999983601], [0.0, 0.9417910999909509], [0.0, 0.9584934999875259], [0.0, 0.9751736999896821], [0.0, 0.9918463999929372], [0.0, 1.008463500009384], [0.0, 1.0251337999943644], [0.0, 1.0417854999832343], [0.0, 1.0584729999827687], [0.0, 1.0751789000059944], [0.0, 1.0918092000065371], [0.0, 1.1084923000016715], [0.0, 1.1250321999832522], [0.0, 1.141812599991681], [0.0, 1.1584830000065267], [0.0, 1.175141799991252], [0.0, 1.1918309000029694], [0.0, 1.2084578000067268], [0.0, 1.2251495000091381], [0.0, 1.2417988000088371], [0.0, 1.258595499995863], [0.0, 1.275122699997155], [0.0, 1.2918216999969445], [0.03680752385834252, 1.3084856999921612], [0.08097655248835345, 1.3249695999838877], [0.11778407634669597, 1.341855000006035], [0.14723009543337007, 1.3583316000003833], [0.191399124063381, 1.3750843000016175], [0.22820664792172352, 1.3917072000040207], [0.27237567655173467, 1.4084017999994103], [0.323906209953414, 1.4249753000040073], [0.39015975289843063, 1.4418089000100736], [0.4490517910717786, 1.458422600000631], [0.6036433912768169, 1.4751491000060923], [0.691981448536839, 1.4917790000035893], [0.7729580010251924, 1.5084973000048194], [0.8024040201118665, 1.5251494999974966], [0.8097655248835349, 1.541812299983576], [0.8097655248835349, 1.5583500000066124], [0.8097655248835349, 1.5749757000012323], [0.8318500391985406, 1.5918259999889415], [0.8539345535135459, 1.6084858999820426], [0.88338057260022, 1.6251275999820791], [0.898103582143557, 1.641801799996756], [0.9054650869152256, 1.6584798999829218], [0.9054650869152256, 1.6751673999824561], [0.9054650869152256, 1.6918604999955278], [0.9422726107735679, 1.7082763999933377], [0.9496341155452366, 1.7251322999945842], [0.9496341155452366, 1.741805800003931], [0.9496341155452366, 1.758448300010059], [0.9643571250885734, 1.7750398000061978], [0.9643571250885734, 1.791832799994154], [0.9643571250885734, 1.8084371000004467], [0.9643571250885734, 1.8250716000038665], [0.9643571250885734, 1.8417905999813229], [0.9643571250885734, 1.8585012999828905], [0.9643571250885734, 1.8751593999913894], [0.9643571250885734, 1.8918394999927841], [0.9643571250885734, 1.9084917999862228], [0.9643571250885734, 1.9251573999936227], [0.9643571250885734, 1.941899099998409], [0.9643571250885734, 1.9585045999847353], [0.9643571250885734, 1.9751889999897685], [0.9643571250885734, 1.9918216000078246], [0.9643571250885734, 2.0085097999835853], [0.9643571250885734, 2.025155999988783], [0.9643571250885734, 2.0418268000066746], [0.9643571250885734, 2.058448600000702], [0.9201880964585625, 2.075121300003957], [0.88338057260022, 2.0918263999919873], [0.7287889723951815, 2.10849149999558], [0.5815588769618114, 2.1251465999812353], [0.44169028630011, 2.141838099982124], [0.36071373381175653, 2.1583994000102393], [0.29446019086674013, 2.1749920999864116], [0.250291162236729, 2.1918063999910373], [0.2208451431500551, 2.208432499988703], [0.18403761929171258, 2.225139299989678], [0.13250708589003302, 2.241838199988706], [0.08097655248835345, 2.2584657999977935], [0.029446019086674102, 2.2751620000053663], [0.0, 2.29182949999813], [-0.022084514315005466, 2.3083578000077978], [-0.05889203817334798, 2.3250483000010718], [-0.11042257157502755, 2.341815099993255], [-0.161953104976707, 2.358399399992777], [-0.22820664792172352, 2.37517499999376], [-0.30182169563840844, 2.391810400004033], [-0.353352229040088, 2.4084991999843623], [-0.39752125767009894, 2.4251528999884613], [-0.43432878152844145, 2.441816300008213], [-0.4564132958434469, 2.4584697000100277], [-0.515305334016795, 2.4751462999847718], [-0.5373898483318005, 2.4918340999865904], [-0.5815588769618115, 2.508505600009812], [-0.6257279055918226, 2.525146500003757], [-0.6551739246784964, 2.5418686000048183], [-0.6993429533085076, 2.55839580000611], [-0.7287889723951815, 2.575175300007686], [-0.7508734867101869, 2.59182659999351], [-0.7582349914818556, 2.6084977999853436], [-0.780319505796861, 2.6260459999903105], [-0.7950425153401981, 2.641818999982206], [-0.8171270296552035, 2.65847070000018], [-0.8465730487418774, 2.67514979999396], [-0.8612960582852145, 2.691850000002887], [-0.8907420773718885, 2.7084949999989476], [-0.9054650869152255, 2.7251604000048246], [-0.912826591686894, 2.7418411999824457], [-0.927549601230231, 2.758309199998621], [-0.9422726107735679, 2.7750295999867376], [-0.9643571250885735, 2.7918165999872144], [-0.971718629860242, 2.8084985000023153], [-0.9790801346319105, 2.825147299998207], [-0.986441639403579, 2.8418186999915633], [-1, 2.857994599995436], [-1, 2.87464190000901], [-1, 2.8913295000093058], [-1, 2.9079905999824405], [-1, 2.92463829999906], [-1, 2.9413021999935154], [-1, 2.9580131999973673], [-1, 2.974637100007385], [-1, 2.9913562999863643], [-1, 3.007994699990377], [-1, 3.0245272000029217], [-0.9422726107735679, 3.0419040999840945], [-0.868657563056883, 3.0583881000056863], [-0.8171270296552035, 3.075168699986534], [-0.7729580010251924, 3.091833799990127], [-0.7508734867101869, 3.1085058999888133], [-0.7287889723951815, 3.125168600003235], [-0.691981448536839, 3.1418626999948174], [-0.6625354294501651, 3.1584334000071976], [-0.633089410363491, 3.175185500003863], [-0.618366400820154, 3.1918382000003476], [-0.603643391276817, 3.208517799997935], [-0.5594743626468061, 3.2251568000065163], [-0.515305334016795, 3.241831599996658], [-0.46377480061511556, 3.258488399995258], [-0.40488276244176746, 3.2751654000021517], [-0.37543674335509347, 3.2918136999942362], [-0.353352229040088, 3.308524199994281], [-0.3239062099534139, 3.3251283999998122], [-0.29446019086674, 3.3419807000027504], [-0.279737181323403, 3.3583503999980167], [-0.24292965746506057, 3.3751656000094954], [-0.21348363837838658, 3.391728599992348], [-0.17667611452004406, 3.4085188999888487], [-0.14723009543337007, 3.4250436000002082], [-0.1251455811183645, 3.4418278000084683], [-0.11778407634669597, 3.4585079999815207], [-0.11778407634669597, 3.4752448000072036], [-0.11778407634669597, 3.4918513000011444], [-0.08833805726002197, 3.508514399989508], [-0.08097655248835356, 3.525161300000036], [-0.07361504771668503, 3.5418307000072673], [-0.07361504771668503, 3.5584090999909677], [-0.05889203817334798, 3.57514309999533], [-0.05889203817334798, 3.5918197999999393], [-0.05153053340167957, 3.608524799987208], [-0.03680752385834252, 3.625192799983779], [-0.02944601908667399, 3.641852700005984], [-0.014723009543337051, 3.658518499985803], [-0.014723009543337051, 3.6752066999906674], [-0.014723009543337051, 3.6918676999921445], [-0.014723009543337051, 3.7085081999830436], [0.0073615047716684145, 3.725161599984858], [0.0073615047716684145, 3.741834399988875], [0.0073615047716684145, 3.758500700001605], [0.0073615047716684145, 3.775192600005539], [0.0073615047716684145, 3.7918497000064235], [0.0073615047716684145, 3.8085137000016402], [0.0073615047716684145, 3.825184099987382], [0.0073615047716684145, 3.841847500007134], [0.0073615047716684145, 3.8585030999965966], [0.0073615047716684145, 3.87499630000093], [0.0073615047716684145, 3.891805299994303], [0.0073615047716684145, 3.908371500001522], [0.0073615047716684145, 3.9252045000030193], [0.0073615047716684145, 3.941712700005155], [0.0073615047716684145, 3.958536099991761], [0.0073615047716684145, 3.9750902999949176], [0.0073615047716684145, 3.9918699999980163], [0.0073615047716684145, 4.008524600008968], [0.0073615047716684145, 4.025180900003761], [0.0073615047716684145, 4.041860299999826], [0.0073615047716684145, 4.058526599983452], [0.0073615047716684145, 4.075216800003545], [0.0073615047716684145, 4.091820800007554], [0.0073615047716684145, 4.108525299991015], [0.0073615047716684145, 4.125161999982083], [0.0073615047716684145, 4.141850999993039], [0.0073615047716684145, 4.158534699992742], [0.0073615047716684145, 4.175180299993372], [0.0073615047716684145, 4.191851999989012], [0.0073615047716684145, 4.208500799984904], [0.0073615047716684145, 4.22520329998224], [0.0073615047716684145, 4.241843199997675], [0.0073615047716684145, 4.258512600004906], [0.0073615047716684145, 4.27518150000833], [0.0073615047716684145, 4.291850599984173], [0.0073615047716684145, 4.308505199995125], [0.0073615047716684145, 4.325172399985604], [0.0073615047716684145, 4.341854300000705], [0.0073615047716684145, 4.358528299984755], [0.0073615047716684145, 4.375159099989105], [0.0073615047716684145, 4.391852200002177], [0.0073615047716684145, 4.408550199994352], [0.0073615047716684145, 4.425169099995401], [0.0073615047716684145, 4.441865700006019], [0.0073615047716684145, 4.458522700006142], [0.0073615047716684145, 4.475177899992559], [0.0073615047716684145, 4.49185029999353], [0.0073615047716684145, 4.508560199989006], [0.0073615047716684145, 4.525198899995303], [0.0073615047716684145, 4.541862799989758], [0.0073615047716684145, 4.558497699996224], [0.0073615047716684145, 4.575196599995252], [0.0073615047716684145, 4.591939899983117], [0.0073615047716684145, 4.608536899992032], [0.0073615047716684145, 4.625163099990459], [0.0073615047716684145, 4.641868799983058], [0.0073615047716684145, 4.658484099985799], [0.0073615047716684145, 4.675224799982971], [0.0073615047716684145, 4.691859699989436], [0.0073615047716684145, 4.708530100004282], [0.0073615047716684145, 4.725195699982578], [0.0073615047716684145, 4.74185029999353], [0.0073615047716684145, 4.758390500006499], [0.0073615047716684145, 4.775172800000291], [0.0073615047716684145, 4.79192069999408], [0.0073615047716684145, 4.80852990000858], [0.0073615047716684145, 4.825196399993729], [0.0073615047716684145, 4.841836999985389], [0.0073615047716684145, 4.858692899986636], [0.0073615047716684145, 4.875190699996892], [0.0073615047716684145, 4.891829700005474], [0.0073615047716684145, 4.908529999986058], [0.0073615047716684145, 4.925169599999208], [0.0073615047716684145, 4.942010900005698], [0.0073615047716684145, 4.958520199987106], [0.0073615047716684145, 4.975230799987912], [0.0073615047716684145, 4.991915699996753], [0.0073615047716684145, 5.008542900002794], [0.0073615047716684145, 5.025198099989211], [0.0073615047716684145, 5.041875299997628], [0.0073615047716684145, 5.058541200007312], [0.0073615047716684145, 5.075192199990852], [0.0073615047716684145, 5.091884900000878], [0.0073615047716684145, 5.108540999994148], [0.0073615047716684145, 5.125219999987166], [0.0073615047716684145, 5.141862999997102], [0.0073615047716684145, 5.158518899988849], [0.0073615047716684145, 5.175200400000904], [0.0073615047716684145, 5.191922199999681], [0.0073615047716684145, 5.2085244999907445], [0.0073615047716684145, 5.225181899993913], [0.0073615047716684145, 5.241872399987187], [0.0073615047716684145, 5.258547600009479], [0.0073615047716684145, 5.275226900004782], [0.0073615047716684145, 5.2918616000097245], [0.0073615047716684145, 5.308535399992252], [0.0073615047716684145, 5.32519649999449], [0.0073615047716684145, 5.341871599986916], [0.0073615047716684145, 5.358517099986784], [0.0073615047716684145, 5.375228899996728], [0.0073615047716684145, 5.3918795000063255], [0.0073615047716684145, 5.408659200009424], [0.0073615047716684145, 5.425238399999216], [0.0073615047716684145, 5.4418426000047475], [0.0073615047716684145, 5.458484600007068], [0.0073615047716684145, 5.475061999983154], [0.0073615047716684145, 5.491861999995308], [0.0073615047716684145, 5.5085439999820665], [0.0073615047716684145, 5.52520450000884], [0.0073615047716684145, 5.541849000001093], [0.0073615047716684145, 5.5585250000003725], [0.0073615047716684145, 5.575117300002603], [0.0073615047716684145, 5.591860099986661], [0.0073615047716684145, 5.608483599993633], [0.0073615047716684145, 5.625184100004844], [0.0073615047716684145, 5.641832699999213], [0.0073615047716684145, 5.658523799997056], [0.0073615047716684145, 5.675194099982036], [0.0073615047716684145, 5.691874899988761], [0.0073615047716684145, 5.708489099983126], [0.0073615047716684145, 5.725229900010163], [0.0073615047716684145, 5.7418717999826185], [0.0073615047716684145, 5.758527900004992], [0.0073615047716684145, 5.775098399986746], [0.0073615047716684145, 5.79188659999636], [0.0073615047716684145, 5.808530299982522], [0.0073615047716684145, 5.825200599996606], [0.0073615047716684145, 5.841878999985056], [0.0073615047716684145, 5.858613199990941], [0.0073615047716684145, 5.8752260000037495], [0.0073615047716684145, 5.891842799988808], [0.0073615047716684145, 5.908605600008741], [0.0073615047716684145, 5.9252043000014964], [0.0073615047716684145, 5.941869000002043], [0.0073615047716684145, 5.958538000006229]]",6.01,None,None,None,None,None,False,False,False,False,False,True,True,"[[0.0, 25.065875200001756], [0.0, 25.077188499999465], [0.0, 25.093620600004215], [0.0, 25.11021859999164], [0.0, 25.126907500001835], [0.0, 25.143577099981485], [0.0, 25.16025419998914], [0.0, 25.176928200002294], [0.0, 25.193540899985237], [0.0, 25.210484399984125], [0.0, 25.22686190000968], [0.0, 25.243497599993134], [0.0, 25.26025120000122], [0.0, 25.276862300001085], [0.0, 25.293583799997577], [0.0, 25.31020149998949], [0.0, 25.3268870000029], [0.0, 25.343158800009405], [0.0, 25.3597618000058], [0.0, 25.376417499996023], [0.0, 25.392987500003073], [0.0, 25.409727499994915], [0.0, 25.426375799987], [0.0, 25.44307409998146], [0.0, 25.45973909998429], [0.0, 25.476438299985602], [0.0, 25.493131600000197], [0.0, 25.509749599994393], [0.0, 25.52637579999282], [0.0, 25.543043499987107], [0.0, 25.559787600010168], [0.0, 25.576400599995395], [0.0, 25.5931512999814], [0.0, 25.609759499988286], [0.0, 25.6264216999989], [0.0, 25.643105399998603], [0.0, 25.659811199991964], [0.0, 25.676432399981422], [0.0, 25.694398399995407], [0.0, 25.710733399988385], [0.014723009543337051, 25.7274030999979], [0.03680752385834252, 25.743943100009346], [0.11042257157502755, 25.760648800001945], [0.2797371813234031, 25.77734890001011], [0.5153053340167948, 25.79429269998218], [0.691981448536839, 25.810859399993205], [0.8539345535135459, 25.827400399983162], [1, 25.843585099995835], [1, 25.860379199992167], [1, 25.877002599998377], [1, 25.89369739999529], [1, 25.910380699991947], [1, 25.92694579999079], [1, 25.943583199987188], [1, 25.960209499986377], [1, 25.976930400007404], [1, 25.99353149998933], [1, 26.01026360000833], [1, 26.02692420000676], [1, 26.04354919999605], [1, 26.060220299987122], [1, 26.076886099996045], [1, 26.093603699991945], [1, 26.110149299987825], [1, 26.126993699988816], [1, 26.143531999987317], [1, 26.16026679999777], [1, 26.17682419999619], [1, 26.193618099991], [0.824488534426872, 26.210748999990756], [0.6846199437651705, 26.227418399997987], [0.5447513531034689, 26.243975699995644], [0.39015975289843063, 26.260831199993845], [0.23556815269339215, 26.277525699988473], [0.05889203817334798, 26.29418130000704], [-0.17667611452004406, 26.310804799984908], [-0.29446019086674, 26.327454799989937], [-0.37543674335509347, 26.344057000009343], [-0.47113630538678397, 26.360726799990516], [-0.5815588769618115, 26.37752099998761], [-0.6846199437651705, 26.394293599994853], [-0.8097655248835349, 26.410842199984472], [-0.9496341155452365, 26.427483599982224], [-1, 26.443666300008772], [-1, 26.460390899999766], [-1, 26.477017800003523], [-1, 26.49358929999289], [-1, 26.510387199989054], [-1, 26.526975199987646], [-1, 26.54370700000436], [-1, 26.560287600004813], [-1, 26.576855699997395], [-1, 26.593576499988558], [-1, 26.61016280000331], [-1, 26.62688060000073], [-1, 26.643465500004822], [-1, 26.660255199996755], [-1, 26.67686340000364], [-1, 26.693500599998515], [-1, 26.710244899993995], [-1, 26.72680720000062], [-1, 26.74354759999551], [-1, 26.760221999982605], [-1, 26.776935000001686], [-1, 26.79367069998989], [-1, 26.810197999991942], [-0.898103582143557, 26.827450999990106], [-0.7214274676235131, 26.844070599996485], [-0.5594743626468061, 26.860820800007787], [-0.39752125767009894, 26.877564499998698], [-0.279737181323403, 26.894161000003805], [-0.18403761929171258, 26.910850299987942], [-0.07361504771668503, 26.92741709999973], [-0.022084514315005466, 26.943992299988167], [0.029446019086674102, 26.960698699986096], [0.05153053340167957, 26.977494699996896], [0.06625354294501662, 26.994240800006082], [0.08833805726002208, 27.010926899994956], [0.14723009543337007, 27.027519299997948], [0.19876062883504964, 27.043970700004138], [0.24292965746506057, 27.06080770000699], [0.2576526670083976, 27.07749180000974], [0.2576526670083976, 27.094042399985483], [0.2576526670083976, 27.11076859998866], [0.26501417178006603, 27.127411499997834], [0.2797371813234031, 27.144109199987724], [0.2797371813234031, 27.1607701999892], [0.2797371813234031, 27.17736820000573], [0.2797371813234031, 27.194109200005187], [0.2797371813234031, 27.210725999990245], [0.2797371813234031, 27.227250600000843], [0.2797371813234031, 27.243996799981687], [0.2797371813234031, 27.26083600000129], [0.2797371813234031, 27.277550099999644], [0.2797371813234031, 27.293966700002784], [0.2797371813234031, 27.310594000009587], [0.2797371813234031, 27.327354499982903], [0.2797371813234031, 27.344019099982688], [0.2797371813234031, 27.360721799981548], [0.2797371813234031, 27.377474899985828], [0.2797371813234031, 27.394069900008617], [0.2797371813234031, 27.410662999987835], [0.27237567655173467, 27.427469399990514], [0.250291162236729, 27.444183499988867], [0.250291162236729, 27.46082569999271], [0.23556815269339215, 27.477508899988607], [0.2208451431500551, 27.494009799993364], [0.18403761929171258, 27.510975299985148], [0.16195310497670712, 27.527487399987876], [0.14723009543337007, 27.544193299982], [0.13986859066170143, 27.560718299995642], [0.13250708589003302, 27.577314499998465], [0.11778407634669597, 27.594132099999115], [0.11042257157502755, 27.61084569999366], [0.10306106680335891, 27.627455499983625], [0.10306106680335891, 27.644125399994664], [0.08833805726002208, 27.660834399983287], [0.08833805726002208, 27.677383400005056], [0.08833805726002208, 27.694052100006957], [0.08833805726002208, 27.71071899999515], [0.08833805726002208, 27.727339000004577], [0.08833805726002208, 27.744145400007255], [0.08833805726002208, 27.760766799998237], [0.08833805726002208, 27.77744249999523], [0.08833805726002208, 27.794010699988576], [0.08833805726002208, 27.810683099989546], [0.08833805726002208, 27.827423399983672], [0.08833805726002208, 27.84405610000249], [0.08833805726002208, 27.860722899989923], [0.08833805726002208, 27.877380299993092], [0.08833805726002208, 27.894043100008275], [0.08833805726002208, 27.91069889999926], [0.08833805726002208, 27.92743929999415], [0.08833805726002208, 27.944025200005854], [0.08833805726002208, 27.959893599996576], [0.08833805726002208, 27.976464999985183], [0.08833805726002208, 27.99318950000452], [0.08833805726002208, 28.009996599983424], [0.08833805726002208, 28.02646100000129], [0.08833805726002208, 28.043063299992355], [0.08833805726002208, 28.059847399999853], [0.08833805726002208, 28.07645510000293], [0.08833805726002208, 28.093136699986644], [0.08833805726002208, 28.109755099983886], [0.08833805726002208, 28.12646689999383], [0.08833805726002208, 28.143124099995475], [0.08833805726002208, 28.159767200006172], [0.08833805726002208, 28.176461499999277], [0.08833805726002208, 28.19314369998756], [0.08833805726002208, 28.209876399982022], [0.08833805726002208, 28.22646489998442], [0.08833805726002208, 28.243128500005696], [0.08833805726002208, 28.25987909999094], [0.08833805726002208, 28.276468600000953], [0.08833805726002208, 28.29298289999133], [0.08833805726002208, 28.309607200004393], [0.08833805726002208, 28.32654010000988], [0.08833805726002208, 28.34313910000492], [0.08833805726002208, 28.35979970000335], [0.08833805726002208, 28.376467299996875], [0.08833805726002208, 28.39312059999793], [0.08833805726002208, 28.409821599983843], [0.08833805726002208, 28.426474899984896], [0.08833805726002208, 28.443153700005496], [0.08833805726002208, 28.45977749998565], [0.08833805726002208, 28.47648479999043], [0.08833805726002208, 28.49314599999343], [0.08833805726002208, 28.509819200000493], [0.08833805726002208, 28.526470899989363], [0.08833805726002208, 28.542989000008674], [0.08833805726002208, 28.55985329998657], [0.08833805726002208, 28.576501300005475], [0.08833805726002208, 28.593183199991472], [0.08833805726002208, 28.6099530000065], [0.08097655248835345, 28.62662399999681], [0.08097655248835345, 28.64330689999042], [0.08097655248835345, 28.65995760000078], [0.07361504771668503, 28.676659499993548], [0.06625354294501662, 28.69330019998597], [0.06625354294501662, 28.710091999993892], [0.05889203817334798, 28.726624400005676], [0.05889203817334798, 28.743239800009178], [0.05889203817334798, 28.75984809998772], [0.05153053340167957, 28.776542799983872], [0.04416902863001093, 28.793425299983937], [0.04416902863001093, 28.809836600004928], [0.04416902863001093, 28.826544499985175], [0.04416902863001093, 28.84329550000257], [0.04416902863001093, 28.860043199994834], [0.04416902863001093, 28.87657890000264], [0.04416902863001093, 28.89329119998729], [0.04416902863001093, 28.90998229998513], [0.06625354294501662, 28.92658400000073], [0.07361504771668503, 28.94345940000494], [0.08097655248835345, 28.959951500000898], [0.08097655248835345, 28.97660110000288], [0.08097655248835345, 28.993124600005103], [0.08097655248835345, 29.009809899987886], [0.08097655248835345, 29.026467899995623], [0.08097655248835345, 29.04315189999761], [0.08097655248835345, 29.059835699998075], [0.08097655248835345, 29.076464599987958], [0.08097655248835345, 29.093144799990114], [0.08097655248835345, 29.109854100010125], [0.08097655248835345, 29.126424199988833], [0.08097655248835345, 29.14312669998617], [0.08097655248835345, 29.159863299981225], [0.08097655248835345, 29.176478100009263], [0.08097655248835345, 29.193035999982385], [0.08097655248835345, 29.20982049999293], [0.08097655248835345, 29.226478900003713], [0.08097655248835345, 29.24314829998184], [0.08097655248835345, 29.259840399987297], [0.08097655248835345, 29.2764795999974], [0.08097655248835345, 29.293127199984156], [0.08097655248835345, 29.309797599999], [0.08097655248835345, 29.32643439999083], [0.08097655248835345, 29.343159199983347], [0.08097655248835345, 29.359809999994468], [0.08097655248835345, 29.376472300005844], [0.08097655248835345, 29.393147800001316], [0.08097655248835345, 29.409883399988757], [0.08097655248835345, 29.426468599995133], [0.08097655248835345, 29.44315199999255], [0.08097655248835345, 29.45989900000859], [0.08097655248835345, 29.476685900008306], [0.08097655248835345, 29.492988999991212], [0.08097655248835345, 29.50965510000242], [0.08097655248835345, 29.52633719998994], [0.08097655248835345, 29.543115799984662], [0.08097655248835345, 29.559880999993766], [0.08097655248835345, 29.57648019999033], [0.08097655248835345, 29.593134499998996], [0.08097655248835345, 29.609789199981606], [0.08097655248835345, 29.62647650000872], [0.08097655248835345, 29.64300280000316], [0.08097655248835345, 29.659852299984777], [0.08097655248835345, 29.676482399983797], [0.08097655248835345, 29.693163399992045], [0.08097655248835345, 29.709731899987673], [0.08097655248835345, 29.726482800004305], [0.08097655248835345, 29.743161299993517], [0.08097655248835345, 29.759835100005148], [0.08097655248835345, 29.77645730000222], [0.08097655248835345, 29.79324249998899], [0.08097655248835345, 29.80974779999815], [0.08097655248835345, 29.826406699983636], [0.08097655248835345, 29.843044299981557], [0.08097655248835345, 29.859782299987273], [0.08097655248835345, 29.876431699987734], [0.08097655248835345, 29.893132299999706], [0.08097655248835345, 29.909927000000607], [0.08097655248835345, 29.92642450000858], [0.08097655248835345, 29.943193899991456], [0.08097655248835345, 29.959797699993942], [0.08097655248835345, 29.97646750000422], [0.08097655248835345, 29.99311760001001], [0.08097655248835345, 30.009771399985766], [0.08097655248835345, 30.026436799991643], [0.08097655248835345, 30.04301459999988], [0.08097655248835345, 30.059923599998], [0.08097655248835345, 30.076427299994975], [0.08097655248835345, 30.09314759998233], [0.08097655248835345, 30.109698799991747], [0.08097655248835345, 30.126426300004823], [0.08097655248835345, 30.143101299996488], [0.08097655248835345, 30.159845899994252], [0.08097655248835345, 30.176532699988456], [0.08097655248835345, 30.1931717999978], [0.08097655248835345, 30.209967500006314], [0.08097655248835345, 30.2264276999922], [0.08097655248835345, 30.242961199983256], [0.08097655248835345, 30.259812100004638], [0.08097655248835345, 30.276478399988264], [0.08097655248835345, 30.29323260000092], [0.08097655248835345, 30.309867899981327], [0.08097655248835345, 30.3265165000048], [0.08097655248835345, 30.343157900002552], [0.08097655248835345, 30.359863999998197], [0.08097655248835345, 30.37654249998741], [0.08097655248835345, 30.39326519999304], [0.08097655248835345, 30.409851400007028], [0.08097655248835345, 30.426436899986584], [0.08097655248835345, 30.443150100007188], [0.08097655248835345, 30.459862499992596], [0.08097655248835345, 30.47649279999314], [0.08097655248835345, 30.493098500010092], [0.08097655248835345, 30.50980939998408], [0.08097655248835345, 30.526404100004584], [0.08097655248835345, 30.543196199985687], [0.08097655248835345, 30.559846899996046], [0.08097655248835345, 30.57649420000962], [0.08097655248835345, 30.59318299998995], [0.08097655248835345, 30.60990059998585], [0.08097655248835345, 30.626517600001534], [0.08097655248835345, 30.643167200003518], [0.08097655248835345, 30.659833699988667], [0.08097655248835345, 30.67645969998557], [0.08097655248835345, 30.693208599986974], [0.08097655248835345, 30.709851199993864], [0.08097655248835345, 30.72645270000794], [0.08097655248835345, 30.743157599994447], [0.08097655248835345, 30.759686600009445], [0.08097655248835345, 30.776448899996467], [0.08097655248835345, 30.79314580000937], [0.08097655248835345, 30.809869099990465], [0.08097655248835345, 30.82644859998254], [0.08097655248835345, 30.843179799994687], [0.08097655248835345, 30.859886199992616], [0.08097655248835345, 30.876502900006017], [0.08097655248835345, 30.893205000000307], [0.08097655248835345, 30.909857899998315], [0.08097655248835345, 30.926528899988625], [0.08097655248835345, 31.011117999994894]]","[[140.0, 8.100003469735384e-06], [140.0, 0.01204679999500513], [140.0, 0.02871670000604354], [140.0, 0.04537440001149662], [140.0, 0.062033900001551956], [140.0, 0.07869500000379048], [140.0, 0.09539010000298731], [140.0, 0.11204750000615604], [140.0, 0.12869700000737794], [140.0, 0.14536019999650307], [140.0, 0.1620120000152383], [140.0, 0.1786535000137519], [140.0, 0.19535910000558943], [140.0, 0.21200550001231022], [140.0, 0.22868060000473633], [140.0, 0.2453483999997843], [140.0, 0.2620075000158977], [140.0, 0.27821739998762496], [140.0, 0.2948076000029687], [140.0, 0.3115191000106279], [140.0, 0.3280881000100635], [140.0, 0.3449010000040289], [140.0, 0.36153910000575706], [140.0, 0.37819600000511855], [140.0, 0.394836799998302], [140.0, 0.41155829999479465], [140.0, 0.4282287000096403], [140.0, 0.4448510000074748], [140.0, 0.4614986999949906], [140.0, 0.47819009999511763], [140.0, 0.4949055000033695], [140.0, 0.5115230999945197], [140.0, 0.5282268000009935], [140.0, 0.5448876000009477], [140.0, 0.5615477999963332], [140.0, 0.5781917000131216], [140.0, 0.5949015000078361], [140.0, 0.6115579000033904], [140.0, 0.6282085000129882], [140.0, 0.6448735999874771], [140.0, 0.6615568000124767], [140.0, 0.6780945000064094], [140.0, 0.6948269999993499], [140.0, 0.711492400005227], [140.0, 0.7282261000073049], [140.0, 0.7448760000115726], [140.0, 0.7615599000127986], [140.0, 0.7781934000086039], [140.0, 0.7948959000059403], [140.0, 0.8115448000025935], [140.0, 0.8282251000055112], [140.0, 0.8448607999889646], [140.0, 0.8615472000092268], [140.0, 0.8781947999959812], [140.0, 0.8948393999889959], [140.0, 0.9115273999923375], [140.0, 0.9282154999964405], [140.0, 0.9448966000054497], [140.0, 0.9615596999938134], [140.0, 0.9781861999945249], [140.0, 0.9948782999999821], [140.0, 1.0115568999899551], [140.0, 1.0282434000109788], [140.0, 1.044789400009904], [140.0, 1.0615675000008196], [140.0, 1.0780985000019427], [140.0, 1.0948394000006374], [140.0, 1.111432200006675], [140.0, 1.1282128999882843], [140.0, 1.1448384000104852], [140.0, 1.1615649000159465], [140.0, 1.17804860000615], [140.0, 1.1949032999982592], [140.0, 1.211571499996353], [140.0, 1.2282417000096757], [140.0, 1.2449043999949936], [140.0, 1.2615526000154205], [140.0, 1.2781014000065625], [140.0, 1.2948346000048332], [140.0, 1.3115742999943905], [140.0, 1.3282574999902863], [140.0, 1.3448824000079185], [140.0, 1.3615657000045758], [140.0, 1.3782013000163715], [140.0, 1.3949044999899343], [140.0, 1.4115592000016477], [140.0, 1.4281022000068333], [140.0, 1.4448409999895375], [140.0, 1.4615430000121705], [140.0, 1.4781205999897793], [140.0, 1.4948715000064112], [140.0, 1.5114900000044145], [140.0, 1.5282141999923624], [140.0, 1.5447947999928147], [140.0, 1.561515600013081], [140.0, 1.5781139000027906], [140.0, 1.594871500012232], [140.0, 1.6114984000159893], [140.0, 1.6281172999879345], [140.0, 1.6448305000085384], [140.0, 1.6614480999996886], [140.0, 1.6781301000155509], [140.0, 1.6947838999913074], [140.0, 1.7114148999971803], [140.0, 1.7281226000050083], [140.0, 1.7447680000041146], [140.0, 1.7615513000055216], [140.0, 1.7781313000014052], [140.0, 1.7948316000110935], [140.0, 1.8115319999924395], [140.0, 1.8281773999915458], [140.0, 1.8448007999977563], [140.0, 1.861514399992302], [140.0, 1.8780912999936845], [140.0, 1.8947950000001583], [140.0, 1.911568300012732], [140.0, 1.9282464999996591], [140.0, 1.9449145999969915], [140.0, 1.9615767000068445], [140.0, 1.9780633999907877], [140.0, 1.9948446000053082], [140.0, 2.0115723999915645], [140.0, 2.02818640001351], [140.0, 2.044908200012287], [140.0, 2.061564700008603], [140.0, 2.0782121999945957], [140.0, 2.0948990999895614], [140.0, 2.1115861000143923], [140.0, 2.1282313000119757], [140.0, 2.1448874000052456], [140.0, 2.1614323999965563], [140.0, 2.178213400009554], [140.0, 2.1949143999954686], [140.0, 2.211585600016406], [140.0, 2.228191700007301], [140.0, 2.2447855999926105], [140.0, 2.261566100001801], [140.0, 2.278233499993803], [140.0, 2.294899100001203], [140.0, 2.3115803000109736], [140.0, 2.3282750000071246], [140.0, 2.344894900015788], [140.0, 2.361586399987573], [140.0, 2.378255599993281], [140.0, 2.394899400009308], [140.0, 2.41156539999065], [140.0, 2.4281076999905054], [140.0, 2.4449007000075653], [140.0, 2.461583399999654], [140.0, 2.4782148000085726], [140.0, 2.4947887000162154], [140.0, 2.5114580999943428], [140.0, 2.528247999987798], [140.0, 2.544910800002981], [140.0, 2.561588600015966], [140.0, 2.578251500002807], [140.0, 2.5949070999922697], [140.0, 2.6115897000127006], [140.0, 2.6282387000101153], [140.0, 2.6449194999877363], [140.0, 2.661590100004105], [140.0, 2.678227500000503], [140.0, 2.694907900004182], [140.0, 2.7115748999931384], [140.0, 2.7281961000117008], [140.0, 2.744866399996681], [140.0, 2.7615761999913957], [140.0, 2.7782614000025205], [140.0, 2.7949055999924894], [140.0, 2.811593599995831], [140.0, 2.828259000001708], [140.0, 2.8448551000037696], [140.0, 2.8615901000157464], [140.0, 2.878150000004098], [140.0, 2.894909700000426], [140.0, 2.911594800010789], [140.0, 2.9282598000136204], [140.0, 2.9449265000002924], [140.0, 2.961589400016237], [140.0, 2.978123000008054], [140.0, 2.994911099987803], [140.0, 3.011593700008234], [140.0, 3.0282618000055663], [140.0, 3.044860099995276], [140.0, 3.0615934999950696], [140.0, 3.0782184000127017], [140.0, 3.094923700002255], [140.0, 3.1115796999947634], [140.0, 3.1282673999958206], [140.0, 3.1449322999978904], [140.0, 3.1615905000071507], [140.0, 3.1782206000061706], [140.0, 3.194941800000379], [140.0, 3.211599500005832], [140.0, 3.2281177999975625], [140.0, 3.2447824999981094], [140.0, 3.26158970000688], [140.0, 3.2782454999978654], [140.0, 3.294917899998836], [140.0, 3.3115934999950696], [140.0, 3.3282604000123683], [140.0, 3.3449347999994643], [140.0, 3.3615970000100788], [140.0, 3.378246800013585], [140.0, 3.3949334000062663], [140.0, 3.411603100015782], [140.0, 3.42827160001616], [140.0, 3.4449103999941144], [140.0, 3.461596900015138], [140.0, 3.4781297000008635], [140.0, 3.4949340999883134], [140.0, 3.5115938000089955], [140.0, 3.528268299996853], [140.0, 3.544936599995708], [140.0, 3.5615992000093684], [140.0, 3.578228800004581], [140.0, 3.594935800007079], [140.0, 3.611606099992059], [140.0, 3.6282677999988664], [140.0, 3.644895700010238], [140.0, 3.661601400002837], [140.0, 3.678123699995922], [140.0, 3.694824400008656], [140.0, 3.7115481999935582], [140.0, 3.7281259000010323], [140.0, 3.744900999998208], [140.0, 3.761547400004929], [140.0, 3.778253800002858], [140.0, 3.7949383000086527], [140.0, 3.8115661999909207], [140.0, 3.828254399995785], [140.0, 3.84494330000598], [140.0, 3.8615886000043247], [140.0, 3.878123600006802], [140.0, 3.894924299995182], [140.0, 3.91160600000876], [140.0, 3.928259000007529], [140.0, 3.9449401999881957], [140.0, 3.9615932000160683], [140.0, 3.978238500014413], [140.0, 3.9949319000006653], [140.0, 4.011606000014581], [140.0, 4.028273400006583], [140.0, 4.044905699993251], [140.0, 4.061592499987455], [140.0, 4.078261899994686], [140.0, 4.094946199998958], [140.0, 4.111610699997982], [140.0, 4.1282198000117205], [140.0, 4.144919300015317], [140.0, 4.161606200010283], [140.0, 4.178244000009727], [140.0, 4.194945499999449], [140.0, 4.211608899990097], [140.0, 4.22827540000435], [140.0, 4.244944300007774], [140.0, 4.261553299991647], [140.0, 4.278261200000998], [140.0, 4.294949400005862], [140.0, 4.311610600008862], [140.0, 4.32827399999951], [140.0, 4.344957199995406], [140.0, 4.3615955999994185], [140.0, 4.378239500016207], [140.0, 4.394984799990198], [140.0, 4.411619199992856], [140.0, 4.428137999988394], [140.0, 4.4448018000111915], [140.0, 4.461479999998119], [140.0, 4.478246899991063], [140.0, 4.4949529000150505], [140.0, 4.511613900016528], [140.0, 4.528279599995585], [140.0, 4.544893400016008], [140.0, 4.561616899998626], [140.0, 4.5781496000126936], [140.0, 4.594954300002428], [140.0, 4.611620200012112], [140.0, 4.628263899998274], [140.0, 4.644858999992721], [140.0, 4.661614999989979], [140.0, 4.678248300013365], [140.0, 4.694943900016369], [140.0, 4.711621700000251], [140.0, 4.728266899997834], [140.0, 4.744839799997862], [140.0, 4.761497600004077], [140.0, 4.778176499996334], [140.0, 4.794870599987917], [140.0, 4.8115904000005685], [140.0, 4.8282537999912165], [140.0, 4.844912800006568], [140.0, 4.861594699992565], [140.0, 4.878180600004271], [140.0, 4.894923899992136], [140.0, 4.911594400007743], [140.0, 4.9282613999967], [140.0, 4.944898599991575], [140.0, 4.961585400014883], [140.0, 4.978178199991817], [140.0, 4.99492709999322], [140.0, 5.0115630000073], [140.0, 5.028232200013008], [140.0, 5.044768599997042], [140.0, 5.061508599988883], [140.0, 5.078254499996547], [140.0, 5.094933599990327], [140.0, 5.11162380001042], [140.0, 5.128289200016297], [140.0, 5.144912899995688], [140.0, 5.1615088999969885], [140.0, 5.17810570000438], [140.0, 5.194941800000379], [140.0, 5.211618900008034], [140.0, 5.2282973999972455], [140.0, 5.244939800002612], [140.0, 5.261609400011366], [140.0, 5.278258900012588], [140.0, 5.294960800005356], [140.0, 5.311627699993551], [140.0, 5.328286900010426], [140.0, 5.344925999990664], [140.0, 5.361569200002123], [140.0, 5.378254500014009], [140.0, 5.394961100013461], [140.0, 5.411631900002249], [140.0, 5.428239600005327], [140.0, 5.444945099996403], [140.0, 5.461575799999991], [140.0, 5.478261999989627], [140.0, 5.494964899990009], [140.0, 5.511631200002739], [140.0, 5.528297500015469], [140.0, 5.544966999994358], [140.0, 5.561612599994987], [140.0, 5.578299599990714], [140.0, 5.5949397000076715], [140.0, 5.6116297999979], [140.0, 5.628282099991338], [140.0, 5.644931499991799], [140.0, 5.661570099997334], [140.0, 5.678260000015143], [140.0, 5.694780499994522], [140.0, 5.711590599996271], [140.0, 5.728282700001728], [140.0, 5.744965799996862], [140.0, 5.761616900010267], [140.0, 5.778313899994828], [140.0, 5.794949400005862], [140.0, 5.811635699996259], [140.0, 5.828294800012372], [140.0, 5.844969099998707], [140.0, 5.861617899994599], [140.0, 5.878301399992779]]","[[140.0, 8.100003469735384e-06], [140.0, 0.01204679999500513], [140.0, 0.02871670000604354], [140.0, 0.04537440001149662], [140.0, 0.062033900001551956], [140.0, 0.07869500000379048], [140.0, 0.09539010000298731], [140.0, 0.11204750000615604], [140.0, 0.12869700000737794], [140.0, 0.14536019999650307], [140.0, 0.1620120000152383], [140.0, 0.1786535000137519], [140.0, 0.19535910000558943], [140.0, 0.21200550001231022], [140.0, 0.22868060000473633], [140.0, 0.2453483999997843], [140.0, 0.2620075000158977], [140.0, 0.27821739998762496], [140.0, 0.2948076000029687], [140.0, 0.3115191000106279], [140.0, 0.3280881000100635], [140.0, 0.3449010000040289], [140.0, 0.36153910000575706], [140.0, 0.37819600000511855], [140.0, 0.394836799998302], [140.0, 0.41155829999479465], [140.0, 0.4282287000096403], [140.0, 0.4448510000074748], [140.0, 0.4614986999949906], [140.0, 0.47819009999511763], [140.0, 0.4949055000033695], [140.0, 0.5115230999945197], [140.0, 0.5282268000009935], [140.0, 0.5448876000009477], [140.0, 0.5615477999963332], [140.0, 0.5781917000131216], [140.0, 0.5949015000078361], [140.0, 0.6115579000033904], [140.0, 0.6282085000129882], [140.0, 0.6448735999874771], [140.0, 0.6615568000124767], [140.0, 0.6780945000064094], [140.0, 0.6948269999993499], [140.0, 0.711492400005227], [140.0, 0.7282261000073049], [140.0, 0.7448760000115726], [140.0, 0.7615599000127986], [140.0, 0.7781934000086039], [140.0, 0.7948959000059403], [140.0, 0.8115448000025935], [140.0, 0.8282251000055112], [140.0, 0.8448607999889646], [140.0, 0.8615472000092268], [140.0, 0.8781947999959812], [140.0, 0.8948393999889959], [140.0, 0.9115273999923375], [140.0, 0.9282154999964405], [140.0, 0.9448966000054497], [140.0, 0.9615596999938134], [140.0, 0.9781861999945249], [140.0, 0.9948782999999821], [140.0, 1.0115568999899551], [140.0, 1.0282434000109788], [140.0, 1.044789400009904], [140.0, 1.0615675000008196], [140.0, 1.0780985000019427], [140.0, 1.0948394000006374], [140.0, 1.111432200006675], [140.0, 1.1282128999882843], [140.0, 1.1448384000104852], [140.0, 1.1615649000159465], [140.0, 1.17804860000615], [140.0, 1.1949032999982592], [140.0, 1.211571499996353], [140.0, 1.2282417000096757], [140.0, 1.2449043999949936], [140.0, 1.2615526000154205], [140.0, 1.2781014000065625], [140.0, 1.2948346000048332], [140.0, 1.3115742999943905], [140.0, 1.3282574999902863], [140.0, 1.3448824000079185], [140.0, 1.3615657000045758], [140.0, 1.3782013000163715], [140.0, 1.3949044999899343], [140.0, 1.4115592000016477], [140.0, 1.4281022000068333], [140.0, 1.4448409999895375], [140.0, 1.4615430000121705], [140.0, 1.4781205999897793], [140.0, 1.4948715000064112], [140.0, 1.5114900000044145], [140.0, 1.5282141999923624], [140.0, 1.5447947999928147], [140.0, 1.561515600013081], [140.0, 1.5781139000027906], [140.0, 1.594871500012232], [140.0, 1.6114984000159893], [140.0, 1.6281172999879345], [140.0, 1.6448305000085384], [140.0, 1.6614480999996886], [140.0, 1.6781301000155509], [140.0, 1.6947838999913074], [140.0, 1.7114148999971803], [140.0, 1.7281226000050083], [140.0, 1.7447680000041146], [140.0, 1.7615513000055216], [140.0, 1.7781313000014052], [140.0, 1.7948316000110935], [140.0, 1.8115319999924395], [140.0, 1.8281773999915458], [140.0, 1.8448007999977563], [140.0, 1.861514399992302], [140.0, 1.8780912999936845], [140.0, 1.8947950000001583], [140.0, 1.911568300012732], [140.0, 1.9282464999996591], [140.0, 1.9449145999969915], [140.0, 1.9615767000068445], [140.0, 1.9780633999907877], [140.0, 1.9948446000053082], [140.0, 2.0115723999915645], [140.0, 2.02818640001351], [140.0, 2.044908200012287], [140.0, 2.061564700008603], [140.0, 2.0782121999945957], [140.0, 2.0948990999895614], [140.0, 2.1115861000143923], [140.0, 2.1282313000119757], [140.0, 2.1448874000052456], [140.0, 2.1614323999965563], [140.0, 2.178213400009554], [140.0, 2.1949143999954686], [140.0, 2.211585600016406], [140.0, 2.228191700007301], [140.0, 2.2447855999926105], [140.0, 2.261566100001801], [140.0, 2.278233499993803], [140.0, 2.294899100001203], [140.0, 2.3115803000109736], [140.0, 2.3282750000071246], [140.0, 2.344894900015788], [140.0, 2.361586399987573], [140.0, 2.378255599993281], [140.0, 2.394899400009308], [140.0, 2.41156539999065], [140.0, 2.4281076999905054], [140.0, 2.4449007000075653], [140.0, 2.461583399999654], [140.0, 2.4782148000085726], [140.0, 2.4947887000162154], [140.0, 2.5114580999943428], [140.0, 2.528247999987798], [140.0, 2.544910800002981], [140.0, 2.561588600015966], [140.0, 2.578251500002807], [140.0, 2.5949070999922697], [140.0, 2.6115897000127006], [140.0, 2.6282387000101153], [140.0, 2.6449194999877363], [140.0, 2.661590100004105], [140.0, 2.678227500000503], [140.0, 2.694907900004182], [140.0, 2.7115748999931384], [140.0, 2.7281961000117008], [140.0, 2.744866399996681], [140.0, 2.7615761999913957], [140.0, 2.7782614000025205], [140.0, 2.7949055999924894], [140.0, 2.811593599995831], [140.0, 2.828259000001708], [140.0, 2.8448551000037696], [140.0, 2.8615901000157464], [140.0, 2.878150000004098], [140.0, 2.894909700000426], [140.0, 2.911594800010789], [140.0, 2.9282598000136204], [140.0, 2.9449265000002924], [140.0, 2.961589400016237], [140.0, 2.978123000008054], [140.0, 2.994911099987803], [140.0, 3.011593700008234], [140.0, 3.0282618000055663], [140.0, 3.044860099995276], [140.0, 3.0615934999950696], [140.0, 3.0782184000127017], [140.0, 3.094923700002255], [140.0, 3.1115796999947634], [140.0, 3.1282673999958206], [140.0, 3.1449322999978904], [140.0, 3.1615905000071507], [140.0, 3.1782206000061706], [140.0, 3.194941800000379], [140.0, 3.211599500005832], [140.0, 3.2281177999975625], [140.0, 3.2447824999981094], [140.0, 3.26158970000688], [140.0, 3.2782454999978654], [140.0, 3.294917899998836], [140.0, 3.3115934999950696], [140.0, 3.3282604000123683], [140.0, 3.3449347999994643], [140.0, 3.3615970000100788], [140.0, 3.378246800013585], [140.0, 3.3949334000062663], [140.0, 3.411603100015782], [140.0, 3.42827160001616], [140.0, 3.4449103999941144], [140.0, 3.461596900015138], [140.0, 3.4781297000008635], [140.0, 3.4949340999883134], [140.0, 3.5115938000089955], [140.0, 3.528268299996853], [140.0, 3.544936599995708], [140.0, 3.5615992000093684], [140.0, 3.578228800004581], [140.0, 3.594935800007079], [140.0, 3.611606099992059], [140.0, 3.6282677999988664], [140.0, 3.644895700010238], [140.0, 3.661601400002837], [140.0, 3.678123699995922], [140.0, 3.694824400008656], [140.0, 3.7115481999935582], [140.0, 3.7281259000010323], [140.0, 3.744900999998208], [140.0, 3.761547400004929], [140.0, 3.778253800002858], [140.0, 3.7949383000086527], [140.0, 3.8115661999909207], [140.0, 3.828254399995785], [140.0, 3.84494330000598], [140.0, 3.8615886000043247], [140.0, 3.878123600006802], [140.0, 3.894924299995182], [140.0, 3.91160600000876], [140.0, 3.928259000007529], [140.0, 3.9449401999881957], [140.0, 3.9615932000160683], [140.0, 3.978238500014413], [140.0, 3.9949319000006653], [140.0, 4.011606000014581], [140.0, 4.028273400006583], [140.0, 4.044905699993251], [140.0, 4.061592499987455], [140.0, 4.078261899994686], [140.0, 4.094946199998958], [140.0, 4.111610699997982], [140.0, 4.1282198000117205], [140.0, 4.144919300015317], [140.0, 4.161606200010283], [140.0, 4.178244000009727], [140.0, 4.194945499999449], [140.0, 4.211608899990097], [140.0, 4.22827540000435], [140.0, 4.244944300007774], [140.0, 4.261553299991647], [140.0, 4.278261200000998], [140.0, 4.294949400005862], [140.0, 4.311610600008862], [140.0, 4.32827399999951], [140.0, 4.344957199995406], [140.0, 4.3615955999994185], [140.0, 4.378239500016207], [140.0, 4.394984799990198], [140.0, 4.411619199992856], [140.0, 4.428137999988394], [140.0, 4.4448018000111915], [140.0, 4.461479999998119], [140.0, 4.478246899991063], [140.0, 4.4949529000150505], [140.0, 4.511613900016528], [140.0, 4.528279599995585], [140.0, 4.544893400016008], [140.0, 4.561616899998626], [140.0, 4.5781496000126936], [140.0, 4.594954300002428], [140.0, 4.611620200012112], [140.0, 4.628263899998274], [140.0, 4.644858999992721], [140.0, 4.661614999989979], [140.0, 4.678248300013365], [140.0, 4.694943900016369], [140.0, 4.711621700000251], [140.0, 4.728266899997834], [140.0, 4.744839799997862], [140.0, 4.761497600004077], [140.0, 4.778176499996334], [140.0, 4.794870599987917], [140.0, 4.8115904000005685], [140.0, 4.8282537999912165], [140.0, 4.844912800006568], [140.0, 4.861594699992565], [140.0, 4.878180600004271], [140.0, 4.894923899992136], [140.0, 4.911594400007743], [140.0, 4.9282613999967], [140.0, 4.944898599991575], [140.0, 4.961585400014883], [140.0, 4.978178199991817], [140.0, 4.99492709999322], [140.0, 5.0115630000073], [140.0, 5.028232200013008], [140.0, 5.044768599997042], [140.0, 5.061508599988883], [140.0, 5.078254499996547], [140.0, 5.094933599990327], [140.0, 5.11162380001042], [140.0, 5.128289200016297], [140.0, 5.144912899995688], [140.0, 5.1615088999969885], [140.0, 5.17810570000438], [140.0, 5.194941800000379], [140.0, 5.211618900008034], [140.0, 5.2282973999972455], [140.0, 5.244939800002612], [140.0, 5.261609400011366], [140.0, 5.278258900012588], [140.0, 5.294960800005356], [140.0, 5.311627699993551], [140.0, 5.328286900010426], [140.0, 5.344925999990664], [140.0, 5.361569200002123], [140.0, 5.378254500014009], [140.0, 5.394961100013461], [140.0, 5.411631900002249], [140.0, 5.428239600005327], [140.0, 5.444945099996403], [140.0, 5.461575799999991], [140.0, 5.478261999989627], [140.0, 5.494964899990009], [140.0, 5.511631200002739], [140.0, 5.528297500015469], [140.0, 5.544966999994358], [140.0, 5.561612599994987], [140.0, 5.578299599990714], [140.0, 5.5949397000076715], [140.0, 5.6116297999979], [140.0, 5.628282099991338], [140.0, 5.644931499991799], [140.0, 5.661570099997334], [140.0, 5.678260000015143], [140.0, 5.694780499994522], [140.0, 5.711590599996271], [140.0, 5.728282700001728], [140.0, 5.744965799996862], [140.0, 5.761616900010267], [140.0, 5.778313899994828], [140.0, 5.794949400005862], [140.0, 5.811635699996259], [140.0, 5.828294800012372], [140.0, 5.844969099998707], [140.0, 5.861617899994599], [140.0, 5.878301399992779]]",23,A,non_immersive,No,8,2024-04-29_12h57.19.455,Experiment_VR_non_immersive,60.016804704019236,
2,../amsterdam_dynamic_facial_expression_set/F01-Disgust-Face Forward.mp4,arousal,right,HV-LA,direct,0,,,,,0,0,0,1,"[[ 0.          0.0093947 ]
 [ 0.          0.025938  ]
 [ 0.          0.0425545 ]
 [ 0.          0.0595847 ]
 [ 0.          0.0758562 ]
 [ 0.          0.0933811 ]
 [ 0.          0.1092    ]
 [ 0.          0.126771  ]
 [ 0.          0.1425116 ]
 [ 0.          0.1600637 ]
 [ 0.          0.1758634 ]
 [ 0.          0.1933879 ]
 [ 0.          0.2092159 ]
 [ 0.          0.2267336 ]
 [ 0.          0.2425609 ]
 [ 0.          0.2600754 ]
 [ 0.          0.275849  ]
 [ 0.          0.2933566 ]
 [ 0.          0.3092434 ]
 [ 0.          0.3266719 ]
 [ 0.          0.3425774 ]
 [ 0.          0.3600773 ]
 [ 0.          0.3758838 ]
 [ 0.          0.3931689 ]
 [ 0.          0.4092204 ]
 [ 0.          0.4267234 ]
 [ 0.          0.4438635 ]
 [ 0.02208451  0.4611896 ]
 [ 0.03680752  0.476936  ]
 [ 0.05889204  0.4944417 ]
 [ 0.08833806  0.5102411 ]
 [ 0.13250709  0.5278381 ]
 [ 0.16931461  0.5438101 ]
 [ 0.21348364  0.5610869 ]
 [ 0.29446019  0.5768706 ]
 [ 0.41960577  0.594509  ]
 [ 0.59628189  0.6101539 ]
 [ 0.73615048  0.6277966 ]
 [ 0.82448853  0.6436842 ]
 [ 0.85393455  0.6611864 ]
 [ 0.87601907  0.6768827 ]
 [ 0.88338057  0.694434  ]
 [ 0.93491111  0.7101942 ]
 [ 1.          0.7278786 ]
 [ 1.          0.7436619 ]
 [ 1.          0.7611263 ]
 [ 1.          0.7768818 ]
 [ 1.          0.794458  ]
 [ 1.          0.8101968 ]
 [ 1.          0.827719  ]
 [ 1.          0.8435804 ]
 [ 1.          0.8610797 ]
 [ 1.          0.8768453 ]
 [ 1.          0.8943829 ]
 [ 1.          0.9101751 ]
 [ 1.          0.9277602 ]
 [ 1.          0.943551  ]
 [ 1.          0.9611731 ]
 [ 1.          0.9768293 ]
 [ 1.          0.9943889 ]
 [ 0.94963412  1.0101167 ]
 [ 0.89074208  1.0278013 ]
 [ 0.83921154  1.0437246 ]
 [ 0.7655965   1.061016  ]
 [ 0.69934295  1.0768167 ]
 [ 0.59628189  1.094416  ]
 [ 0.50058232  1.1102937 ]
 [ 0.39015975  1.1278131 ]
 [ 0.3018217   1.1436355 ]
 [ 0.19876063  1.1612334 ]
 [ 0.1619531   1.1769646 ]
 [ 0.11042257  1.1945206 ]
 [ 0.03680752  1.2101176 ]
 [-0.05153053  1.2278802 ]
 [-0.13250709  1.2435887 ]
 [-0.19876063  1.2611276 ]
 [-0.28709869  1.2769608 ]
 [-0.33862922  1.2944913 ]
 [-0.39015975  1.3102158 ]
 [-0.43432878  1.3278408 ]
 [-0.4637748   1.3436102 ]
 [-0.51530533  1.361114  ]
 [-0.55211286  1.376968  ]
 [-0.57419737  1.3943673 ]
 [-0.6110049   1.4101632 ]
 [-0.66253543  1.4277762 ]
 [-0.73615048  1.4435896 ]
 [-0.79504252  1.4611178 ]
 [-0.84657305  1.476921  ]
 [-0.90546509  1.4944672 ]
 [-0.95699562  1.5102027 ]
 [-0.99380314  1.5279422 ]
 [-1.          1.5436557 ]
 [-1.          1.5609961 ]
 [-1.          1.5768078 ]
 [-1.          1.5942691 ]
 [-1.          1.6100758 ]
 [-1.          1.6277605 ]
 [-1.          1.6435241 ]
 [-1.          1.6610733 ]
 [-1.          1.6768407 ]
 [-1.          1.6943674 ]
 [-1.          1.7101796 ]
 [-1.          1.7277363 ]
 [-1.          1.7435193 ]
 [-1.          1.7610642 ]
 [-1.          1.7768724 ]
 [-1.          1.7943728 ]
 [-1.          1.8102066 ]
 [-1.          1.8276683 ]
 [-0.96435713  1.8436529 ]
 [-0.87601907  1.8610775 ]
 [-0.81712703  1.8769502 ]
 [-0.78768101  1.8943259 ]
 [-0.772958    1.9103119 ]
 [-0.7655965   1.927731  ]
 [-0.73615048  1.943627  ]
 [-0.67725844  1.961163  ]
 [-0.62572791  1.976986  ]
 [-0.58155888  1.9943793 ]
 [-0.53738985  2.0101737 ]
 [-0.50058232  2.0278183 ]
 [-0.47113631  2.0436642 ]
 [-0.44169029  2.0611343 ]
 [-0.39015975  2.0769663 ]
 [-0.35335223  2.094488  ]
 [-0.32390621  2.1101316 ]
 [-0.3018217   2.1279162 ]
 [-0.28709869  2.143581  ]
 [-0.26501417  2.1611226 ]
 [-0.23556815  2.1769349 ]
 [-0.21348364  2.1945491 ]
 [-0.19139912  2.2101157 ]
 [-0.19139912  2.2277244 ]
 [-0.18403762  2.2436178 ]
 [-0.18403762  2.2610726 ]
 [-0.16931461  2.2769284 ]
 [-0.1472301   2.294434  ]
 [-0.13986859  2.3102682 ]
 [-0.13986859  2.3277554 ]
 [-0.13986859  2.3435558 ]
 [-0.13986859  2.3610284 ]
 [-0.13986859  2.3769223 ]
 [-0.13986859  2.3943607 ]
 [-0.13986859  2.4101838 ]
 [-0.13986859  2.4278198 ]
 [-0.13986859  2.4434988 ]
 [-0.13986859  2.4610468 ]
 [-0.13986859  2.4767146 ]
 [-0.13250709  2.494469  ]
 [-0.13250709  2.5101404 ]
 [-0.12514558  2.5278017 ]
 [-0.12514558  2.5434778 ]
 [-0.12514558  2.561067  ]
 [-0.12514558  2.5768752 ]
 [-0.12514558  2.5944189 ]
 [-0.12514558  2.6102328 ]
 [-0.12514558  2.6277668 ]
 [-0.12514558  2.6435629 ]
 [-0.12514558  2.660913  ]
 [-0.12514558  2.6768202 ]
 [-0.12514558  2.6944221 ]
 [-0.12514558  2.7100531 ]
 [-0.12514558  2.7278287 ]
 [-0.12514558  2.743394  ]
 [-0.12514558  2.7600959 ]
 [-0.12514558  2.7759164 ]
 [-0.12514558  2.7934377 ]
 [-0.12514558  2.8092535 ]
 [-0.12514558  2.8266082 ]
 [-0.12514558  2.8426039 ]
 [-0.12514558  2.8600939 ]
 [-0.12514558  2.8758932 ]
 [-0.12514558  2.8933944 ]
 [-0.12514558  2.9092152 ]
 [-0.12514558  2.9267572 ]
 [-0.12514558  2.9425824 ]
 [-0.12514558  2.9602354 ]
 [-0.12514558  2.9760903 ]
 [-0.12514558  2.9936411 ]
 [-0.11042257  3.0092847 ]
 [-0.08097655  3.027003  ]
 [-0.06625354  3.0427101 ]
 [-0.05889204  3.0602906 ]
 [-0.05889204  3.0760715 ]
 [-0.05889204  3.0935886 ]
 [-0.05889204  3.1093971 ]
 [-0.05153053  3.126946  ]
 [-0.05153053  3.1428194 ]
 [-0.05153053  3.1602852 ]
 [-0.05153053  3.176063  ]
 [-0.05153053  3.1936037 ]
 [-0.05153053  3.2091443 ]
 [-0.05153053  3.2270049 ]
 [-0.05153053  3.2427611 ]
 [-0.05153053  3.2601111 ]
 [-0.05153053  3.2758844 ]
 [-0.05153053  3.2934412 ]
 [-0.05153053  3.3092307 ]
 [-0.05153053  3.3268174 ]
 [-0.05153053  3.3426473 ]
 [-0.05153053  3.3601302 ]
 [-0.05153053  3.3758944 ]
 [-0.05153053  3.3933972 ]
 [-0.05153053  3.4092259 ]
 [-0.05153053  3.426816  ]
 [-0.05153053  3.4425517 ]
 [-0.05153053  3.4600363 ]
 [-0.05153053  3.4758985 ]
 [-0.05153053  3.4934429 ]
 [-0.05153053  3.5092366 ]
 [-0.05153053  3.5267841 ]
 [-0.05153053  3.5425673 ]
 [-0.05153053  3.5600556 ]
 [-0.05153053  3.5758956 ]
 [-0.05153053  3.5933321 ]
 [-0.05153053  3.6092383 ]
 [-0.05153053  3.6268183 ]
 [-0.05153053  3.6426339 ]
 [-0.05153053  3.6599979 ]
 [-0.05153053  3.6758934 ]
 [-0.05153053  3.69341   ]
 [-0.05153053  3.7092583 ]
 [-0.05153053  3.7267773 ]
 [-0.05153053  3.7425917 ]
 [-0.05153053  3.7601181 ]
 [-0.05153053  3.7758988 ]
 [-0.05153053  3.7934519 ]
 [-0.05153053  3.8091312 ]
 [-0.05153053  3.8267808 ]
 [-0.05153053  3.8426165 ]
 [-0.05153053  3.8600641 ]
 [-0.05153053  3.8758274 ]
 [-0.05153053  3.8934174 ]
 [-0.05153053  3.9092479 ]
 [-0.05153053  3.9268237 ]
 [-0.05153053  3.942627  ]
 [-0.05153053  3.9601207 ]
 [-0.05153053  3.9759146 ]
 [-0.05153053  3.9934475 ]
 [-0.05153053  4.0092438 ]
 [-0.05153053  4.0267854 ]
 [-0.05153053  4.0426035 ]
 [-0.05153053  4.0601146 ]
 [-0.05153053  4.0759071 ]
 [-0.05153053  4.0933546 ]
 [-0.05153053  4.1092357 ]
 [-0.05153053  4.126725  ]
 [-0.05153053  4.142604  ]
 [-0.05153053  4.1601283 ]
 [-0.05153053  4.1759313 ]
 [-0.05153053  4.1933711 ]
 [-0.05153053  4.2092748 ]
 [-0.05153053  4.2268406 ]
 [-0.05153053  4.2426271 ]
 [-0.05153053  4.2601293 ]
 [-0.05153053  4.2759306 ]
 [-0.05153053  4.2933717 ]
 [-0.05153053  4.3092508 ]
 [-0.05153053  4.3267872 ]
 [-0.05153053  4.3426211 ]
 [-0.05153053  4.3601378 ]
 [-0.05153053  4.3758027 ]
 [-0.05153053  4.3933386 ]
 [-0.05153053  4.4091308 ]
 [-0.05153053  4.4267814 ]
 [-0.05153053  4.4425635 ]
 [-0.05153053  4.4599492 ]
 [-0.05153053  4.4759395 ]
 [-0.05153053  4.4934456 ]
 [-0.05153053  4.5092739 ]
 [-0.05153053  4.5268755 ]
 [-0.05153053  4.5426334 ]
 [-0.05153053  4.5601589 ]
 [-0.05153053  4.5759203 ]
 [-0.05153053  4.5934104 ]
 [-0.05153053  4.6092295 ]
 [-0.05153053  4.626809  ]
 [-0.05153053  4.6426663 ]
 [-0.05153053  4.6600699 ]
 [-0.05153053  4.6760321 ]
 [-0.05153053  4.6934317 ]
 [-0.05153053  4.7092451 ]
 [-0.05153053  4.7268013 ]
 [-0.05153053  4.7428165 ]
 [-0.07361505  4.7603304 ]
 [-0.08097655  4.7764096 ]
 [-0.08833806  4.7936303 ]
 [-0.09569956  4.8093043 ]
 [-0.09569956  4.8267876 ]
 [-0.09569956  4.8426485 ]
 [-0.09569956  4.8601042 ]
 [-0.09569956  4.8759122 ]
 [-0.09569956  4.8934716 ]
 [-0.09569956  4.9092498 ]
 [-0.09569956  4.9268258 ]
 [-0.09569956  4.9426306 ]
 [-0.09569956  4.9601243 ]
 [-0.09569956  4.9759139 ]
 [-0.09569956  4.9933908 ]
 [-0.09569956  5.009252  ]
 [-0.09569956  5.0267981 ]
 [-0.09569956  5.0426    ]
 [-0.09569956  5.0600443 ]
 [-0.09569956  5.0759076 ]
 [-0.09569956  5.0934064 ]
 [-0.09569956  5.1092459 ]
 [-0.09569956  5.1268475 ]
 [-0.09569956  5.1426521 ]
 [-0.09569956  5.1600313 ]
 [-0.09569956  5.1759154 ]
 [-0.09569956  5.1933936 ]
 [-0.09569956  5.2092479 ]
 [-0.09569956  5.2267359 ]
 [-0.09569956  5.2426246 ]
 [-0.09569956  5.2599225 ]
 [-0.09569956  5.2759566 ]
 [-0.09569956  5.293268  ]
 [-0.09569956  5.3092835 ]
 [-0.09569956  5.3267779 ]
 [-0.09569956  5.3426684 ]
 [-0.09569956  5.3599439 ]
 [-0.09569956  5.3759319 ]
 [-0.09569956  5.3933753 ]
 [-0.09569956  5.4091714 ]
 [-0.09569956  5.4268055 ]
 [-0.09569956  5.4425152 ]
 [-0.09569956  5.4600576 ]
 [-0.09569956  5.4758025 ]
 [-0.09569956  5.4933898 ]
 [-0.09569956  5.5092125 ]
 [-0.09569956  5.5267478 ]
 [-0.09569956  5.5426252 ]
 [-0.09569956  5.5600826 ]
 [-0.09569956  5.5759201 ]
 [-0.09569956  5.5933686 ]
 [-0.09569956  5.6092702 ]
 [-0.09569956  5.6267406 ]
 [-0.09569956  5.6426083 ]
 [-0.09569956  5.6600306 ]
 [-0.09569956  5.675927  ]
 [-0.09569956  5.6934127 ]
 [-0.09569956  5.7092919 ]
 [-0.09569956  5.7267528 ]
 [-0.09569956  5.7426338 ]
 [-0.09569956  5.7600555 ]
 [-0.09569956  5.7759558 ]
 [-0.09569956  5.7933767 ]
 [-0.09569956  5.809282  ]
 [-0.09569956  5.8267507 ]
 [-0.09569956  5.8425922 ]
 [-0.09569956  5.8600876 ]
 [-0.09569956  5.8758521 ]
 [-0.09569956  5.8934475 ]
 [-0.09569956  5.9092894 ]
 [-0.09569956  5.9264582 ]
 [-0.09569956  5.9430676 ]]",6.01,None,None,None,None,None,False,False,False,False,False,False,False,"[[ 0.00000000e+00  7.09999586e-06]
 [ 0.00000000e+00  1.43734000e-02]
 [ 0.00000000e+00  3.15977000e-02]
 [ 0.00000000e+00  4.81398000e-02]
 [ 0.00000000e+00  6.47910000e-02]
 [ 0.00000000e+00  8.16015000e-02]
 [ 0.00000000e+00  9.82043000e-02]
 [ 0.00000000e+00  1.14932700e-01]
 [ 0.00000000e+00  1.31470600e-01]
 [ 0.00000000e+00  1.48271600e-01]
 [ 0.00000000e+00  1.64972000e-01]
 [ 0.00000000e+00  1.81558900e-01]
 [ 0.00000000e+00  1.98288200e-01]
 [ 0.00000000e+00  2.14934900e-01]
 [ 0.00000000e+00  2.31584600e-01]
 [ 0.00000000e+00  2.48266800e-01]
 [ 0.00000000e+00  2.64951400e-01]
 [ 0.00000000e+00  2.81623300e-01]
 [ 0.00000000e+00  2.98287400e-01]
 [ 0.00000000e+00  3.14936800e-01]
 [ 0.00000000e+00  3.31584500e-01]
 [ 0.00000000e+00  3.48249100e-01]
 [ 0.00000000e+00  3.64811900e-01]
 [ 0.00000000e+00  3.81604400e-01]
 [ 0.00000000e+00  3.98286200e-01]
 [ 0.00000000e+00  4.14952900e-01]
 [ 0.00000000e+00  4.31586500e-01]
 [ 0.00000000e+00  4.48270800e-01]
 [ 0.00000000e+00  4.64952600e-01]
 [ 0.00000000e+00  4.82089100e-01]
 [ 0.00000000e+00  4.98767300e-01]
 [ 0.00000000e+00  5.15433500e-01]
 [ 0.00000000e+00  5.32083500e-01]
 [ 0.00000000e+00  5.48747900e-01]
 [ 0.00000000e+00  5.65415800e-01]
 [ 0.00000000e+00  5.82085700e-01]
 [ 0.00000000e+00  5.98755200e-01]
 [ 0.00000000e+00  6.15417000e-01]
 [ 0.00000000e+00  6.32082400e-01]
 [ 0.00000000e+00  6.48761700e-01]
 [ 0.00000000e+00  6.65421100e-01]
 [ 0.00000000e+00  6.82090500e-01]
 [ 0.00000000e+00  6.98753300e-01]
 [ 0.00000000e+00  7.15422400e-01]
 [ 0.00000000e+00  7.32091000e-01]
 [ 0.00000000e+00  7.48758100e-01]
 [ 0.00000000e+00  7.65419200e-01]
 [ 0.00000000e+00  7.82088300e-01]
 [ 0.00000000e+00  7.98748900e-01]
 [ 0.00000000e+00  8.15430600e-01]
 [ 0.00000000e+00  8.32087100e-01]
 [ 0.00000000e+00  8.48763100e-01]
 [ 0.00000000e+00  8.65419500e-01]
 [ 0.00000000e+00  8.82094300e-01]
 [ 0.00000000e+00  8.98748400e-01]
 [ 0.00000000e+00  9.15412000e-01]
 [ 0.00000000e+00  9.32096500e-01]
 [ 0.00000000e+00  9.48722400e-01]
 [ 0.00000000e+00  9.65425400e-01]
 [ 0.00000000e+00  9.82103500e-01]
 [ 0.00000000e+00  9.98765600e-01]
 [ 0.00000000e+00  1.01497020e+00]
 [ 0.00000000e+00  1.03208050e+00]
 [ 0.00000000e+00  1.04876070e+00]
 [ 0.00000000e+00  1.06543030e+00]
 [ 0.00000000e+00  1.08209510e+00]
 [ 0.00000000e+00  1.09876080e+00]
 [ 0.00000000e+00  1.11542540e+00]
 [ 0.00000000e+00  1.13208720e+00]
 [ 0.00000000e+00  1.14876640e+00]
 [ 0.00000000e+00  1.16542900e+00]
 [ 0.00000000e+00  1.18209340e+00]
 [ 0.00000000e+00  1.19875700e+00]
 [ 0.00000000e+00  1.21543600e+00]
 [ 0.00000000e+00  1.23209100e+00]
 [ 0.00000000e+00  1.24876290e+00]
 [ 0.00000000e+00  1.26542650e+00]
 [ 8.09765525e-02  1.28209870e+00]
 [ 1.54591600e-01  1.29875610e+00]
 [ 2.65014172e-01  1.31543230e+00]
 [ 4.71136305e-01  1.33213980e+00]
 [ 6.84619944e-01  1.34871790e+00]
 [ 8.46573049e-01  1.36545210e+00]
 [ 8.61296058e-01  1.38210470e+00]
 [ 8.68657563e-01  1.39875990e+00]
 [ 8.83380573e-01  1.41542900e+00]
 [ 9.42272611e-01  1.43209440e+00]
 [ 1.00000000e+00  1.44876740e+00]
 [ 1.00000000e+00  1.46542850e+00]
 [ 1.00000000e+00  1.48209390e+00]
 [ 1.00000000e+00  1.49874650e+00]
 [ 1.00000000e+00  1.51542790e+00]
 [ 1.00000000e+00  1.53210010e+00]
 [ 1.00000000e+00  1.54876690e+00]
 [ 1.00000000e+00  1.56543390e+00]
 [ 1.00000000e+00  1.58209370e+00]
 [ 1.00000000e+00  1.59876210e+00]
 [ 1.00000000e+00  1.61543260e+00]
 [ 1.00000000e+00  1.63209740e+00]
 [ 1.00000000e+00  1.64877040e+00]
 [ 1.00000000e+00  1.66543300e+00]
 [ 1.00000000e+00  1.68209660e+00]
 [ 1.00000000e+00  1.69876110e+00]
 [ 1.00000000e+00  1.71543050e+00]
 [ 1.00000000e+00  1.73209760e+00]
 [ 9.64357125e-01  1.74878320e+00]
 [ 7.14065963e-01  1.76544030e+00]
 [ 5.15305334e-01  1.78210980e+00]
 [ 3.82798248e-01  1.79876520e+00]
 [ 2.65014172e-01  1.81543010e+00]
 [ 1.32507086e-01  1.83149750e+00]
 [-7.36150477e-03  1.84829200e+00]
 [-1.61953105e-01  1.86543760e+00]
 [-2.87098686e-01  1.88210950e+00]
 [-4.04882762e-01  1.89877670e+00]
 [-4.93220820e-01  1.91543450e+00]
 [-5.81558877e-01  1.93209970e+00]
 [-6.84619944e-01  1.94876790e+00]
 [-8.24488534e-01  1.96543790e+00]
 [-8.76019068e-01  1.98210920e+00]
 [-8.83380573e-01  1.99878340e+00]
 [-8.90742077e-01  2.01543310e+00]
 [-8.98103582e-01  2.03210830e+00]
 [-9.20188096e-01  2.04878330e+00]
 [-9.34911106e-01  2.06544290e+00]
 [-9.49634116e-01  2.08208870e+00]
 [-9.71718630e-01  2.09878340e+00]
 [-1.00000000e+00  2.11544320e+00]
 [-1.00000000e+00  2.13210920e+00]
 [-1.00000000e+00  2.14877710e+00]
 [-1.00000000e+00  2.16544460e+00]
 [-1.00000000e+00  2.18210950e+00]
 [-1.00000000e+00  2.19876850e+00]
 [-1.00000000e+00  2.21543300e+00]
 [-1.00000000e+00  2.23211530e+00]
 [-1.00000000e+00  2.24877250e+00]
 [-1.00000000e+00  2.26543220e+00]
 [-1.00000000e+00  2.28210700e+00]
 [-1.00000000e+00  2.29876670e+00]
 [-1.00000000e+00  2.31544010e+00]
 [-1.00000000e+00  2.33210960e+00]
 [-1.00000000e+00  2.34877620e+00]
 [-9.05465087e-01  2.36544780e+00]
 [-8.24488534e-01  2.38211600e+00]
 [-7.72958001e-01  2.39878080e+00]
 [-7.36150477e-01  2.41544200e+00]
 [-6.84619944e-01  2.43211550e+00]
 [-6.40450915e-01  2.44878850e+00]
 [-6.11004896e-01  2.46544190e+00]
 [-5.81558877e-01  2.48212130e+00]
 [-5.44751353e-01  2.49877750e+00]
 [-4.71136305e-01  2.51543840e+00]
 [-3.90159753e-01  2.53212640e+00]
 [-3.16544705e-01  2.54878460e+00]
 [-2.28206648e-01  2.56546010e+00]
 [-1.69314610e-01  2.58211950e+00]
 [-8.83380573e-02  2.59878070e+00]
 [-2.20845143e-02  2.61544940e+00]
 [ 7.36150477e-03  2.63211100e+00]
 [ 3.68075239e-02  2.64879010e+00]
 [ 5.15305334e-02  2.66544650e+00]
 [ 5.15305334e-02  2.68210550e+00]
 [ 6.62535429e-02  2.69878240e+00]
 [ 6.62535429e-02  2.71545050e+00]
 [ 6.62535429e-02  2.73211440e+00]
 [ 6.62535429e-02  2.74873540e+00]
 [ 6.62535429e-02  2.76544450e+00]
 [ 8.83380573e-02  2.78212720e+00]
 [ 1.03061067e-01  2.79879860e+00]
 [ 1.03061067e-01  2.81499990e+00]
 [ 1.03061067e-01  2.83166660e+00]
 [ 1.03061067e-01  2.84828810e+00]
 [ 1.03061067e-01  2.86498620e+00]
 [ 1.03061067e-01  2.88165920e+00]
 [ 1.03061067e-01  2.89832840e+00]
 [ 1.03061067e-01  2.91498080e+00]
 [ 1.03061067e-01  2.93166200e+00]
 [ 1.03061067e-01  2.94829760e+00]
 [ 1.03061067e-01  2.96499130e+00]
 [ 1.03061067e-01  2.98164610e+00]
 [ 1.03061067e-01  2.99833030e+00]
 [ 1.03061067e-01  3.01493700e+00]
 [ 1.03061067e-01  3.03210820e+00]
 [ 1.03061067e-01  3.04879220e+00]
 [ 1.03061067e-01  3.06545500e+00]
 [ 1.03061067e-01  3.08212070e+00]
 [ 1.03061067e-01  3.09879060e+00]
 [ 1.03061067e-01  3.11545230e+00]
 [ 1.03061067e-01  3.13211660e+00]
 [ 1.03061067e-01  3.14878800e+00]
 [ 1.03061067e-01  3.16546990e+00]
 [ 1.03061067e-01  3.18212860e+00]
 [ 1.03061067e-01  3.19879340e+00]
 [ 1.03061067e-01  3.21546980e+00]
 [ 1.03061067e-01  3.23212410e+00]
 [ 1.03061067e-01  3.24879770e+00]
 [ 1.03061067e-01  3.26545870e+00]
 [ 1.03061067e-01  3.28212190e+00]
 [ 1.03061067e-01  3.29878740e+00]
 [ 1.03061067e-01  3.31545780e+00]
 [ 1.03061067e-01  3.33212390e+00]
 [ 1.03061067e-01  3.34880640e+00]
 [ 1.03061067e-01  3.36546170e+00]
 [ 1.03061067e-01  3.38212910e+00]
 [ 1.03061067e-01  3.39819320e+00]
 [ 1.03061067e-01  3.41498070e+00]
 [ 1.03061067e-01  3.43167270e+00]
 [ 1.03061067e-01  3.44828370e+00]
 [ 1.03061067e-01  3.46499870e+00]
 [ 1.03061067e-01  3.48165490e+00]
 [ 1.03061067e-01  3.49818200e+00]
 [ 1.03061067e-01  3.51498270e+00]
 [ 1.03061067e-01  3.53151660e+00]
 [ 1.03061067e-01  3.54831870e+00]
 [ 1.03061067e-01  3.56500250e+00]
 [ 1.03061067e-01  3.58165010e+00]
 [ 1.03061067e-01  3.59833600e+00]
 [ 1.03061067e-01  3.61498230e+00]
 [ 1.03061067e-01  3.63166720e+00]
 [ 1.03061067e-01  3.64830240e+00]
 [ 1.03061067e-01  3.66499960e+00]
 [ 1.03061067e-01  3.68165400e+00]
 [ 1.03061067e-01  3.69832920e+00]
 [ 1.03061067e-01  3.71498370e+00]
 [ 1.03061067e-01  3.73167360e+00]
 [ 1.03061067e-01  3.74820720e+00]
 [ 1.03061067e-01  3.76500900e+00]
 [ 1.03061067e-01  3.78165380e+00]
 [ 1.03061067e-01  3.79834120e+00]
 [ 1.03061067e-01  3.81499160e+00]
 [ 1.03061067e-01  3.83165190e+00]
 [ 1.03061067e-01  3.84831640e+00]
 [ 1.03061067e-01  3.86500090e+00]
 [ 1.03061067e-01  3.88165720e+00]
 [ 1.03061067e-01  3.89833300e+00]
 [ 1.03061067e-01  3.91500080e+00]
 [ 1.03061067e-01  3.93167620e+00]
 [ 1.03061067e-01  3.94830560e+00]
 [ 1.03061067e-01  3.96486700e+00]
 [ 1.03061067e-01  3.98167120e+00]
 [ 1.03061067e-01  3.99830100e+00]
 [ 1.03061067e-01  4.01485860e+00]
 [ 1.03061067e-01  4.03168410e+00]
 [ 1.03061067e-01  4.04821370e+00]
 [ 1.03061067e-01  4.06502970e+00]
 [ 1.03061067e-01  4.08165910e+00]
 [ 1.03061067e-01  4.09828460e+00]
 [ 1.03061067e-01  4.11501440e+00]
 [ 1.03061067e-01  4.13161850e+00]
 [ 1.03061067e-01  4.14821630e+00]
 [ 1.03061067e-01  4.16501180e+00]
 [ 1.03061067e-01  4.18166550e+00]
 [ 1.03061067e-01  4.19834590e+00]
 [ 1.03061067e-01  4.21498880e+00]
 [ 1.03061067e-01  4.23173840e+00]
 [ 1.03061067e-01  4.24821450e+00]
 [ 1.03061067e-01  4.26501100e+00]
 [ 1.03061067e-01  4.28167340e+00]
 [ 1.03061067e-01  4.29834670e+00]
 [ 1.03061067e-01  4.31500690e+00]
 [ 1.03061067e-01  4.33171690e+00]
 [ 1.03061067e-01  4.34830500e+00]
 [ 1.03061067e-01  4.36501420e+00]
 [ 1.03061067e-01  4.38153370e+00]
 [ 1.03061067e-01  4.39835210e+00]
 [ 1.03061067e-01  4.41499480e+00]
 [ 1.03061067e-01  4.43172410e+00]
 [ 1.03061067e-01  4.44831080e+00]
 [ 1.03061067e-01  4.46500910e+00]
 [ 1.03061067e-01  4.48166420e+00]
 [ 1.03061067e-01  4.49835240e+00]
 [ 1.03061067e-01  4.51495290e+00]
 [ 1.03061067e-01  4.53172150e+00]
 [ 1.03061067e-01  4.54832040e+00]
 [ 1.03061067e-01  4.56503270e+00]
 [ 1.03061067e-01  4.58168700e+00]
 [ 1.03061067e-01  4.59835490e+00]
 [ 1.03061067e-01  4.61501760e+00]
 [ 1.03061067e-01  4.63174270e+00]
 [ 1.03061067e-01  4.64831150e+00]
 [ 1.03061067e-01  4.66501690e+00]
 [ 1.03061067e-01  4.68167900e+00]
 [ 1.03061067e-01  4.69835440e+00]
 [ 1.03061067e-01  4.71499980e+00]
 [ 1.03061067e-01  4.73159570e+00]
 [ 1.03061067e-01  4.74833410e+00]
 [ 1.03061067e-01  4.76502010e+00]
 [ 1.03061067e-01  4.78214360e+00]
 [ 1.03061067e-01  4.79880850e+00]
 [ 1.03061067e-01  4.81547860e+00]
 [ 1.03061067e-01  4.83214530e+00]
 [ 1.03061067e-01  4.84881340e+00]
 [ 1.03061067e-01  4.86547260e+00]
 [ 1.03061067e-01  4.88214490e+00]
 [ 1.03061067e-01  4.89881240e+00]
 [ 1.03061067e-01  4.91547990e+00]
 [ 1.03061067e-01  4.93214490e+00]
 [ 1.03061067e-01  4.94881080e+00]
 [ 1.03061067e-01  4.96547810e+00]
 [ 1.03061067e-01  4.98216350e+00]
 [ 1.03061067e-01  4.99880980e+00]
 [ 1.03061067e-01  5.01547840e+00]
 [ 1.03061067e-01  5.03214400e+00]
 [ 1.03061067e-01  5.04882220e+00]
 [ 1.03061067e-01  5.06548400e+00]
 [ 1.03061067e-01  5.08215360e+00]
 [ 1.03061067e-01  5.09835970e+00]
 [ 1.03061067e-01  5.11501100e+00]
 [ 1.03061067e-01  5.13168720e+00]
 [ 1.03061067e-01  5.14830060e+00]
 [ 1.03061067e-01  5.16504120e+00]
 [ 1.03061067e-01  5.18167060e+00]
 [ 1.03061067e-01  5.19836180e+00]
 [ 1.03061067e-01  5.21496750e+00]
 [ 1.03061067e-01  5.23169290e+00]
 [ 1.03061067e-01  5.24824470e+00]
 [ 1.03061067e-01  5.26500880e+00]
 [ 1.03061067e-01  5.28163600e+00]
 [ 1.03061067e-01  5.29836300e+00]
 [ 1.03061067e-01  5.31496610e+00]
 [ 1.03061067e-01  5.33171040e+00]
 [ 1.03061067e-01  5.34834470e+00]
 [ 1.03061067e-01  5.36500700e+00]
 [ 1.03061067e-01  5.38169320e+00]
 [ 1.03061067e-01  5.39835930e+00]
 [ 1.03061067e-01  5.41502310e+00]
 [ 1.03061067e-01  5.43170340e+00]
 [ 1.03061067e-01  5.44833690e+00]
 [ 1.03061067e-01  5.46502830e+00]
 [ 1.03061067e-01  5.48168100e+00]
 [ 1.03061067e-01  5.49835650e+00]
 [ 1.03061067e-01  5.51500810e+00]
 [ 1.03061067e-01  5.53169520e+00]
 [ 1.03061067e-01  5.54830290e+00]
 [ 1.03061067e-01  5.56499460e+00]
 [ 1.03061067e-01  5.58169300e+00]
 [ 1.03061067e-01  5.59832240e+00]
 [ 1.03061067e-01  5.61502350e+00]
 [ 1.03061067e-01  5.63169030e+00]
 [ 1.03061067e-01  5.64832440e+00]
 [ 1.03061067e-01  5.66496610e+00]
 [ 1.03061067e-01  5.68168450e+00]
 [ 1.03061067e-01  5.69836610e+00]
 [ 1.03061067e-01  5.71501220e+00]
 [ 1.03061067e-01  5.73169900e+00]
 [ 1.03061067e-01  5.74832400e+00]
 [ 1.03061067e-01  5.76499800e+00]
 [ 1.03061067e-01  5.78169390e+00]
 [ 1.03061067e-01  5.79833050e+00]
 [ 1.03061067e-01  5.81502830e+00]
 [ 1.03061067e-01  5.83168120e+00]
 [ 1.03061067e-01  5.84831040e+00]
 [ 1.03061067e-01  5.86503680e+00]
 [ 1.03061067e-01  5.88166420e+00]
 [ 1.03061067e-01  5.89837030e+00]
 [ 1.03061067e-01  5.91503400e+00]
 [ 1.03061067e-01  5.93171210e+00]]","[[1.40000000e+02 7.09999586e-06]
 [1.40000000e+02 1.43734000e-02]
 [1.40000000e+02 3.15977000e-02]
 [1.40000000e+02 4.81398000e-02]
 [1.40000000e+02 6.47910000e-02]
 [1.40000000e+02 8.16015000e-02]
 [1.40000000e+02 9.82043000e-02]
 [1.40000000e+02 1.14932700e-01]
 [1.40000000e+02 1.31470600e-01]
 [1.40000000e+02 1.48271600e-01]
 [1.40000000e+02 1.64972000e-01]
 [1.40000000e+02 1.81558900e-01]
 [1.40000000e+02 1.98288200e-01]
 [1.40000000e+02 2.14934900e-01]
 [1.40000000e+02 2.31584600e-01]
 [1.40000000e+02 2.48266800e-01]
 [1.40000000e+02 2.64951400e-01]
 [1.40000000e+02 2.81623300e-01]
 [1.40000000e+02 2.98287400e-01]
 [1.40000000e+02 3.14936800e-01]
 [1.40000000e+02 3.31584500e-01]
 [1.40000000e+02 3.48249100e-01]
 [1.40000000e+02 3.64811900e-01]
 [1.40000000e+02 3.81604400e-01]
 [1.40000000e+02 3.98286200e-01]
 [1.40000000e+02 4.14952900e-01]
 [1.40000000e+02 4.31586500e-01]
 [1.40000000e+02 4.48270800e-01]
 [1.42539719e+02 4.64952600e-01]
 [1.44232865e+02 4.82089100e-01]
 [1.46772584e+02 4.98767300e-01]
 [1.50158877e+02 5.15433500e-01]
 [1.55238315e+02 5.32083500e-01]
 [1.59471180e+02 5.48747900e-01]
 [1.64550618e+02 5.65415800e-01]
 [1.73862922e+02 5.82085700e-01]
 [1.88254664e+02 5.98755200e-01]
 [2.08572417e+02 6.15417000e-01]
 [2.24657305e+02 6.32082400e-01]
 [2.34816181e+02 6.48761700e-01]
 [2.38202474e+02 6.65421100e-01]
 [2.40742193e+02 6.82090500e-01]
 [2.41588766e+02 6.98753300e-01]
 [2.47514777e+02 7.15422400e-01]
 [2.55000000e+02 7.32091000e-01]
 [2.55000000e+02 7.48758100e-01]
 [2.55000000e+02 7.65419200e-01]
 [2.55000000e+02 7.82088300e-01]
 [2.55000000e+02 7.98748900e-01]
 [2.55000000e+02 8.15430600e-01]
 [2.55000000e+02 8.32087100e-01]
 [2.55000000e+02 8.48763100e-01]
 [2.55000000e+02 8.65419500e-01]
 [2.55000000e+02 8.82094300e-01]
 [2.55000000e+02 8.98748400e-01]
 [2.55000000e+02 9.15412000e-01]
 [2.55000000e+02 9.32096500e-01]
 [2.55000000e+02 9.48722400e-01]
 [2.55000000e+02 9.65425400e-01]
 [2.55000000e+02 9.82103500e-01]
 [2.55000000e+02 9.98765600e-01]
 [2.49207923e+02 1.01497020e+00]
 [2.42435339e+02 1.03208050e+00]
 [2.36509328e+02 1.04876070e+00]
 [2.28043597e+02 1.06543030e+00]
 [2.20424440e+02 1.08209510e+00]
 [2.08572417e+02 1.09876080e+00]
 [1.97566967e+02 1.11542540e+00]
 [1.84868372e+02 1.13208720e+00]
 [1.74709495e+02 1.14876640e+00]
 [1.62857472e+02 1.16542900e+00]
 [1.58624607e+02 1.18209340e+00]
 [1.52698596e+02 1.19875700e+00]
 [1.44232865e+02 1.21543600e+00]
 [1.34073989e+02 1.23209100e+00]
 [1.24761685e+02 1.24876290e+00]
 [1.17142528e+02 1.26542650e+00]
 [1.06983651e+02 1.28209870e+00]
 [1.01057640e+02 1.29875610e+00]
 [9.51316284e+01 1.31543230e+00]
 [9.00521901e+01 1.33213980e+00]
 [8.66658979e+01 1.34871790e+00]
 [8.07398866e+01 1.36545210e+00]
 [7.65070213e+01 1.38210470e+00]
 [7.39673022e+01 1.39875990e+00]
 [6.97344370e+01 1.41542900e+00]
 [6.38084256e+01 1.43209440e+00]
 [5.53426951e+01 1.44876740e+00]
 [4.85701107e+01 1.46542850e+00]
 [4.26440994e+01 1.48209390e+00]
 [3.58715150e+01 1.49874650e+00]
 [2.99455037e+01 1.51542790e+00]
 [2.57126384e+01 1.53210010e+00]
 [2.50000000e+01 1.54876690e+00]
 [2.50000000e+01 1.56543390e+00]
 [2.50000000e+01 1.58209370e+00]
 [2.50000000e+01 1.59876210e+00]
 [2.50000000e+01 1.61543260e+00]
 [2.50000000e+01 1.63209740e+00]
 [2.50000000e+01 1.64877040e+00]
 [2.50000000e+01 1.66543300e+00]
 [2.50000000e+01 1.68209660e+00]
 [2.50000000e+01 1.69876110e+00]
 [2.50000000e+01 1.71543050e+00]
 [2.50000000e+01 1.73209760e+00]
 [2.50000000e+01 1.74878320e+00]
 [2.50000000e+01 1.76544030e+00]
 [2.50000000e+01 1.78210980e+00]
 [2.50000000e+01 1.79876520e+00]
 [2.50000000e+01 1.81543010e+00]
 [2.50000000e+01 1.83149750e+00]
 [2.90989306e+01 1.84829200e+00]
 [3.92578072e+01 1.86543760e+00]
 [4.60303916e+01 1.88210950e+00]
 [4.94166838e+01 1.89877670e+00]
 [5.11098299e+01 1.91543450e+00]
 [5.19564029e+01 1.93209970e+00]
 [5.53426951e+01 1.94876790e+00]
 [6.21152795e+01 1.96543790e+00]
 [6.80412909e+01 1.98210920e+00]
 [7.31207291e+01 1.99878340e+00]
 [7.82001674e+01 2.01543310e+00]
 [8.24330327e+01 2.03210830e+00]
 [8.58193249e+01 2.04878330e+00]
 [8.92056171e+01 2.06544290e+00]
 [9.51316284e+01 2.08208870e+00]
 [9.93644937e+01 2.09878340e+00]
 [1.02750786e+02 2.11544320e+00]
 [1.05290505e+02 2.13210920e+00]
 [1.06983651e+02 2.14877710e+00]
 [1.09523370e+02 2.16544460e+00]
 [1.12909662e+02 2.18210950e+00]
 [1.15449382e+02 2.19876850e+00]
 [1.17989101e+02 2.21543300e+00]
 [1.17989101e+02 2.23211530e+00]
 [1.18835674e+02 2.24877250e+00]
 [1.18835674e+02 2.26543220e+00]
 [1.20528820e+02 2.28210700e+00]
 [1.23068539e+02 2.29876670e+00]
 [1.23915112e+02 2.31544010e+00]
 [1.23915112e+02 2.33210960e+00]
 [1.23915112e+02 2.34877620e+00]
 [1.23915112e+02 2.36544780e+00]
 [1.23915112e+02 2.38211600e+00]
 [1.23915112e+02 2.39878080e+00]
 [1.23915112e+02 2.41544200e+00]
 [1.23915112e+02 2.43211550e+00]
 [1.23915112e+02 2.44878850e+00]
 [1.23915112e+02 2.46544190e+00]
 [1.23915112e+02 2.48212130e+00]
 [1.24761685e+02 2.49877750e+00]
 [1.24761685e+02 2.51543840e+00]
 [1.25608258e+02 2.53212640e+00]
 [1.25608258e+02 2.54878460e+00]
 [1.25608258e+02 2.56546010e+00]
 [1.25608258e+02 2.58211950e+00]
 [1.25608258e+02 2.59878070e+00]
 [1.25608258e+02 2.61544940e+00]
 [1.25608258e+02 2.63211100e+00]
 [1.25608258e+02 2.64879010e+00]
 [1.25608258e+02 2.66544650e+00]
 [1.25608258e+02 2.68210550e+00]
 [1.25608258e+02 2.69878240e+00]
 [1.25608258e+02 2.71545050e+00]
 [1.25608258e+02 2.73211440e+00]
 [1.25608258e+02 2.74873540e+00]
 [1.25608258e+02 2.76544450e+00]
 [1.25608258e+02 2.78212720e+00]
 [1.25608258e+02 2.79879860e+00]
 [1.25608258e+02 2.81499990e+00]
 [1.25608258e+02 2.83166660e+00]
 [1.25608258e+02 2.84828810e+00]
 [1.25608258e+02 2.86498620e+00]
 [1.25608258e+02 2.88165920e+00]
 [1.25608258e+02 2.89832840e+00]
 [1.25608258e+02 2.91498080e+00]
 [1.25608258e+02 2.93166200e+00]
 [1.25608258e+02 2.94829760e+00]
 [1.25608258e+02 2.96499130e+00]
 [1.25608258e+02 2.98164610e+00]
 [1.25608258e+02 2.99833030e+00]
 [1.27301404e+02 3.01493700e+00]
 [1.30687696e+02 3.03210820e+00]
 [1.32380843e+02 3.04879220e+00]
 [1.33227416e+02 3.06545500e+00]
 [1.33227416e+02 3.08212070e+00]
 [1.33227416e+02 3.09879060e+00]
 [1.33227416e+02 3.11545230e+00]
 [1.34073989e+02 3.13211660e+00]
 [1.34073989e+02 3.14878800e+00]
 [1.34073989e+02 3.16546990e+00]
 [1.34073989e+02 3.18212860e+00]
 [1.34073989e+02 3.19879340e+00]
 [1.34073989e+02 3.21546980e+00]
 [1.34073989e+02 3.23212410e+00]
 [1.34073989e+02 3.24879770e+00]
 [1.34073989e+02 3.26545870e+00]
 [1.34073989e+02 3.28212190e+00]
 [1.34073989e+02 3.29878740e+00]
 [1.34073989e+02 3.31545780e+00]
 [1.34073989e+02 3.33212390e+00]
 [1.34073989e+02 3.34880640e+00]
 [1.34073989e+02 3.36546170e+00]
 [1.34073989e+02 3.38212910e+00]
 [1.34073989e+02 3.39819320e+00]
 [1.34073989e+02 3.41498070e+00]
 [1.34073989e+02 3.43167270e+00]
 [1.34073989e+02 3.44828370e+00]
 [1.34073989e+02 3.46499870e+00]
 [1.34073989e+02 3.48165490e+00]
 [1.34073989e+02 3.49818200e+00]
 [1.34073989e+02 3.51498270e+00]
 [1.34073989e+02 3.53151660e+00]
 [1.34073989e+02 3.54831870e+00]
 [1.34073989e+02 3.56500250e+00]
 [1.34073989e+02 3.58165010e+00]
 [1.34073989e+02 3.59833600e+00]
 [1.34073989e+02 3.61498230e+00]
 [1.34073989e+02 3.63166720e+00]
 [1.34073989e+02 3.64830240e+00]
 [1.34073989e+02 3.66499960e+00]
 [1.34073989e+02 3.68165400e+00]
 [1.34073989e+02 3.69832920e+00]
 [1.34073989e+02 3.71498370e+00]
 [1.34073989e+02 3.73167360e+00]
 [1.34073989e+02 3.74820720e+00]
 [1.34073989e+02 3.76500900e+00]
 [1.34073989e+02 3.78165380e+00]
 [1.34073989e+02 3.79834120e+00]
 [1.34073989e+02 3.81499160e+00]
 [1.34073989e+02 3.83165190e+00]
 [1.34073989e+02 3.84831640e+00]
 [1.34073989e+02 3.86500090e+00]
 [1.34073989e+02 3.88165720e+00]
 [1.34073989e+02 3.89833300e+00]
 [1.34073989e+02 3.91500080e+00]
 [1.34073989e+02 3.93167620e+00]
 [1.34073989e+02 3.94830560e+00]
 [1.34073989e+02 3.96486700e+00]
 [1.34073989e+02 3.98167120e+00]
 [1.34073989e+02 3.99830100e+00]
 [1.34073989e+02 4.01485860e+00]
 [1.34073989e+02 4.03168410e+00]
 [1.34073989e+02 4.04821370e+00]
 [1.34073989e+02 4.06502970e+00]
 [1.34073989e+02 4.08165910e+00]
 [1.34073989e+02 4.09828460e+00]
 [1.34073989e+02 4.11501440e+00]
 [1.34073989e+02 4.13161850e+00]
 [1.34073989e+02 4.14821630e+00]
 [1.34073989e+02 4.16501180e+00]
 [1.34073989e+02 4.18166550e+00]
 [1.34073989e+02 4.19834590e+00]
 [1.34073989e+02 4.21498880e+00]
 [1.34073989e+02 4.23173840e+00]
 [1.34073989e+02 4.24821450e+00]
 [1.34073989e+02 4.26501100e+00]
 [1.34073989e+02 4.28167340e+00]
 [1.34073989e+02 4.29834670e+00]
 [1.34073989e+02 4.31500690e+00]
 [1.34073989e+02 4.33171690e+00]
 [1.34073989e+02 4.34830500e+00]
 [1.34073989e+02 4.36501420e+00]
 [1.34073989e+02 4.38153370e+00]
 [1.34073989e+02 4.39835210e+00]
 [1.34073989e+02 4.41499480e+00]
 [1.34073989e+02 4.43172410e+00]
 [1.34073989e+02 4.44831080e+00]
 [1.34073989e+02 4.46500910e+00]
 [1.34073989e+02 4.48166420e+00]
 [1.34073989e+02 4.49835240e+00]
 [1.34073989e+02 4.51495290e+00]
 [1.34073989e+02 4.53172150e+00]
 [1.34073989e+02 4.54832040e+00]
 [1.34073989e+02 4.56503270e+00]
 [1.34073989e+02 4.58168700e+00]
 [1.34073989e+02 4.59835490e+00]
 [1.34073989e+02 4.61501760e+00]
 [1.34073989e+02 4.63174270e+00]
 [1.34073989e+02 4.64831150e+00]
 [1.34073989e+02 4.66501690e+00]
 [1.34073989e+02 4.68167900e+00]
 [1.34073989e+02 4.69835440e+00]
 [1.34073989e+02 4.71499980e+00]
 [1.34073989e+02 4.73159570e+00]
 [1.34073989e+02 4.74833410e+00]
 [1.31534270e+02 4.76502010e+00]
 [1.30687696e+02 4.78214360e+00]
 [1.29841123e+02 4.79880850e+00]
 [1.28994550e+02 4.81547860e+00]
 [1.28994550e+02 4.83214530e+00]
 [1.28994550e+02 4.84881340e+00]
 [1.28994550e+02 4.86547260e+00]
 [1.28994550e+02 4.88214490e+00]
 [1.28994550e+02 4.89881240e+00]
 [1.28994550e+02 4.91547990e+00]
 [1.28994550e+02 4.93214490e+00]
 [1.28994550e+02 4.94881080e+00]
 [1.28994550e+02 4.96547810e+00]
 [1.28994550e+02 4.98216350e+00]
 [1.28994550e+02 4.99880980e+00]
 [1.28994550e+02 5.01547840e+00]
 [1.28994550e+02 5.03214400e+00]
 [1.28994550e+02 5.04882220e+00]
 [1.28994550e+02 5.06548400e+00]
 [1.28994550e+02 5.08215360e+00]
 [1.28994550e+02 5.09835970e+00]
 [1.28994550e+02 5.11501100e+00]
 [1.28994550e+02 5.13168720e+00]
 [1.28994550e+02 5.14830060e+00]
 [1.28994550e+02 5.16504120e+00]
 [1.28994550e+02 5.18167060e+00]
 [1.28994550e+02 5.19836180e+00]
 [1.28994550e+02 5.21496750e+00]
 [1.28994550e+02 5.23169290e+00]
 [1.28994550e+02 5.24824470e+00]
 [1.28994550e+02 5.26500880e+00]
 [1.28994550e+02 5.28163600e+00]
 [1.28994550e+02 5.29836300e+00]
 [1.28994550e+02 5.31496610e+00]
 [1.28994550e+02 5.33171040e+00]
 [1.28994550e+02 5.34834470e+00]
 [1.28994550e+02 5.36500700e+00]
 [1.28994550e+02 5.38169320e+00]
 [1.28994550e+02 5.39835930e+00]
 [1.28994550e+02 5.41502310e+00]
 [1.28994550e+02 5.43170340e+00]
 [1.28994550e+02 5.44833690e+00]
 [1.28994550e+02 5.46502830e+00]
 [1.28994550e+02 5.48168100e+00]
 [1.28994550e+02 5.49835650e+00]
 [1.28994550e+02 5.51500810e+00]
 [1.28994550e+02 5.53169520e+00]
 [1.28994550e+02 5.54830290e+00]
 [1.28994550e+02 5.56499460e+00]
 [1.28994550e+02 5.58169300e+00]
 [1.28994550e+02 5.59832240e+00]
 [1.28994550e+02 5.61502350e+00]
 [1.28994550e+02 5.63169030e+00]
 [1.28994550e+02 5.64832440e+00]
 [1.28994550e+02 5.66496610e+00]
 [1.28994550e+02 5.68168450e+00]
 [1.28994550e+02 5.69836610e+00]
 [1.28994550e+02 5.71501220e+00]
 [1.28994550e+02 5.73169900e+00]
 [1.28994550e+02 5.74832400e+00]
 [1.28994550e+02 5.76499800e+00]
 [1.28994550e+02 5.78169390e+00]
 [1.28994550e+02 5.79833050e+00]
 [1.28994550e+02 5.81502830e+00]
 [1.28994550e+02 5.83168120e+00]
 [1.28994550e+02 5.84831040e+00]
 [1.28994550e+02 5.86503680e+00]
 [1.28994550e+02 5.88166420e+00]
 [1.28994550e+02 5.89837030e+00]
 [1.28994550e+02 5.91503400e+00]
 [1.28994550e+02 5.93171210e+00]]","[[ 0.00000000e+00  7.09999586e-06]
 [ 0.00000000e+00  1.43734000e-02]
 [ 0.00000000e+00  3.15977000e-02]
 [ 0.00000000e+00  4.81398000e-02]
 [ 0.00000000e+00  6.47910000e-02]
 [ 0.00000000e+00  8.16015000e-02]
 [ 0.00000000e+00  9.82043000e-02]
 [ 0.00000000e+00  1.14932700e-01]
 [ 0.00000000e+00  1.31470600e-01]
 [ 0.00000000e+00  1.48271600e-01]
 [ 0.00000000e+00  1.64972000e-01]
 [ 0.00000000e+00  1.81558900e-01]
 [ 0.00000000e+00  1.98288200e-01]
 [ 0.00000000e+00  2.14934900e-01]
 [ 0.00000000e+00  2.31584600e-01]
 [ 0.00000000e+00  2.48266800e-01]
 [ 0.00000000e+00  2.64951400e-01]
 [ 0.00000000e+00  2.81623300e-01]
 [ 0.00000000e+00  2.98287400e-01]
 [ 0.00000000e+00  3.14936800e-01]
 [ 0.00000000e+00  3.31584500e-01]
 [ 0.00000000e+00  3.48249100e-01]
 [ 0.00000000e+00  3.64811900e-01]
 [ 0.00000000e+00  3.81604400e-01]
 [ 0.00000000e+00  3.98286200e-01]
 [ 0.00000000e+00  4.14952900e-01]
 [ 0.00000000e+00  4.31586500e-01]
 [ 0.00000000e+00  4.48270800e-01]
 [ 2.20845143e-02  4.64952600e-01]
 [ 3.68075239e-02  4.82089100e-01]
 [ 5.88920382e-02  4.98767300e-01]
 [ 8.83380573e-02  5.15433500e-01]
 [ 1.32507086e-01  5.32083500e-01]
 [ 1.69314610e-01  5.48747900e-01]
 [ 2.13483638e-01  5.65415800e-01]
 [ 2.94460191e-01  5.82085700e-01]
 [ 4.19605772e-01  5.98755200e-01]
 [ 5.96281887e-01  6.15417000e-01]
 [ 7.36150477e-01  6.32082400e-01]
 [ 8.24488534e-01  6.48761700e-01]
 [ 8.53934554e-01  6.65421100e-01]
 [ 8.76019068e-01  6.82090500e-01]
 [ 8.83380573e-01  6.98753300e-01]
 [ 9.34911106e-01  7.15422400e-01]
 [ 1.00000000e+00  7.32091000e-01]
 [ 1.00000000e+00  7.48758100e-01]
 [ 1.00000000e+00  7.65419200e-01]
 [ 1.00000000e+00  7.82088300e-01]
 [ 1.00000000e+00  7.98748900e-01]
 [ 1.00000000e+00  8.15430600e-01]
 [ 1.00000000e+00  8.32087100e-01]
 [ 1.00000000e+00  8.48763100e-01]
 [ 1.00000000e+00  8.65419500e-01]
 [ 1.00000000e+00  8.82094300e-01]
 [ 1.00000000e+00  8.98748400e-01]
 [ 1.00000000e+00  9.15412000e-01]
 [ 1.00000000e+00  9.32096500e-01]
 [ 1.00000000e+00  9.48722400e-01]
 [ 1.00000000e+00  9.65425400e-01]
 [ 1.00000000e+00  9.82103500e-01]
 [ 1.00000000e+00  9.98765600e-01]
 [ 9.49634116e-01  1.01497020e+00]
 [ 8.90742077e-01  1.03208050e+00]
 [ 8.39211544e-01  1.04876070e+00]
 [ 7.65596496e-01  1.06543030e+00]
 [ 6.99342953e-01  1.08209510e+00]
 [ 5.96281887e-01  1.09876080e+00]
 [ 5.00582324e-01  1.11542540e+00]
 [ 3.90159753e-01  1.13208720e+00]
 [ 3.01821696e-01  1.14876640e+00]
 [ 1.98760629e-01  1.16542900e+00]
 [ 1.61953105e-01  1.18209340e+00]
 [ 1.10422572e-01  1.19875700e+00]
 [ 3.68075239e-02  1.21543600e+00]
 [-5.15305334e-02  1.23209100e+00]
 [-1.32507086e-01  1.24876290e+00]
 [-1.98760629e-01  1.26542650e+00]
 [-2.87098686e-01  1.28209870e+00]
 [-3.38629219e-01  1.29875610e+00]
 [-3.90159753e-01  1.31543230e+00]
 [-4.34328782e-01  1.33213980e+00]
 [-4.63774801e-01  1.34871790e+00]
 [-5.15305334e-01  1.36545210e+00]
 [-5.52112858e-01  1.38210470e+00]
 [-5.74197372e-01  1.39875990e+00]
 [-6.11004896e-01  1.41542900e+00]
 [-6.62535429e-01  1.43209440e+00]
 [-7.36150477e-01  1.44876740e+00]
 [-7.95042515e-01  1.46542850e+00]
 [-8.46573049e-01  1.48209390e+00]
 [-9.05465087e-01  1.49874650e+00]
 [-9.56995620e-01  1.51542790e+00]
 [-9.93803144e-01  1.53210010e+00]
 [-1.00000000e+00  1.54876690e+00]
 [-1.00000000e+00  1.56543390e+00]
 [-1.00000000e+00  1.58209370e+00]
 [-1.00000000e+00  1.59876210e+00]
 [-1.00000000e+00  1.61543260e+00]
 [-1.00000000e+00  1.63209740e+00]
 [-1.00000000e+00  1.64877040e+00]
 [-1.00000000e+00  1.66543300e+00]
 [-1.00000000e+00  1.68209660e+00]
 [-1.00000000e+00  1.69876110e+00]
 [-1.00000000e+00  1.71543050e+00]
 [-1.00000000e+00  1.73209760e+00]
 [-1.00000000e+00  1.74878320e+00]
 [-1.00000000e+00  1.76544030e+00]
 [-1.00000000e+00  1.78210980e+00]
 [-1.00000000e+00  1.79876520e+00]
 [-1.00000000e+00  1.81543010e+00]
 [-1.00000000e+00  1.83149750e+00]
 [-9.64357125e-01  1.84829200e+00]
 [-8.76019068e-01  1.86543760e+00]
 [-8.17127030e-01  1.88210950e+00]
 [-7.87681011e-01  1.89877670e+00]
 [-7.72958001e-01  1.91543450e+00]
 [-7.65596496e-01  1.93209970e+00]
 [-7.36150477e-01  1.94876790e+00]
 [-6.77258439e-01  1.96543790e+00]
 [-6.25727906e-01  1.98210920e+00]
 [-5.81558877e-01  1.99878340e+00]
 [-5.37389848e-01  2.01543310e+00]
 [-5.00582324e-01  2.03210830e+00]
 [-4.71136305e-01  2.04878330e+00]
 [-4.41690286e-01  2.06544290e+00]
 [-3.90159753e-01  2.08208870e+00]
 [-3.53352229e-01  2.09878340e+00]
 [-3.23906210e-01  2.11544320e+00]
 [-3.01821696e-01  2.13210920e+00]
 [-2.87098686e-01  2.14877710e+00]
 [-2.65014172e-01  2.16544460e+00]
 [-2.35568153e-01  2.18210950e+00]
 [-2.13483638e-01  2.19876850e+00]
 [-1.91399124e-01  2.21543300e+00]
 [-1.91399124e-01  2.23211530e+00]
 [-1.84037619e-01  2.24877250e+00]
 [-1.84037619e-01  2.26543220e+00]
 [-1.69314610e-01  2.28210700e+00]
 [-1.47230095e-01  2.29876670e+00]
 [-1.39868591e-01  2.31544010e+00]
 [-1.39868591e-01  2.33210960e+00]
 [-1.39868591e-01  2.34877620e+00]
 [-1.39868591e-01  2.36544780e+00]
 [-1.39868591e-01  2.38211600e+00]
 [-1.39868591e-01  2.39878080e+00]
 [-1.39868591e-01  2.41544200e+00]
 [-1.39868591e-01  2.43211550e+00]
 [-1.39868591e-01  2.44878850e+00]
 [-1.39868591e-01  2.46544190e+00]
 [-1.39868591e-01  2.48212130e+00]
 [-1.32507086e-01  2.49877750e+00]
 [-1.32507086e-01  2.51543840e+00]
 [-1.25145581e-01  2.53212640e+00]
 [-1.25145581e-01  2.54878460e+00]
 [-1.25145581e-01  2.56546010e+00]
 [-1.25145581e-01  2.58211950e+00]
 [-1.25145581e-01  2.59878070e+00]
 [-1.25145581e-01  2.61544940e+00]
 [-1.25145581e-01  2.63211100e+00]
 [-1.25145581e-01  2.64879010e+00]
 [-1.25145581e-01  2.66544650e+00]
 [-1.25145581e-01  2.68210550e+00]
 [-1.25145581e-01  2.69878240e+00]
 [-1.25145581e-01  2.71545050e+00]
 [-1.25145581e-01  2.73211440e+00]
 [-1.25145581e-01  2.74873540e+00]
 [-1.25145581e-01  2.76544450e+00]
 [-1.25145581e-01  2.78212720e+00]
 [-1.25145581e-01  2.79879860e+00]
 [-1.25145581e-01  2.81499990e+00]
 [-1.25145581e-01  2.83166660e+00]
 [-1.25145581e-01  2.84828810e+00]
 [-1.25145581e-01  2.86498620e+00]
 [-1.25145581e-01  2.88165920e+00]
 [-1.25145581e-01  2.89832840e+00]
 [-1.25145581e-01  2.91498080e+00]
 [-1.25145581e-01  2.93166200e+00]
 [-1.25145581e-01  2.94829760e+00]
 [-1.25145581e-01  2.96499130e+00]
 [-1.25145581e-01  2.98164610e+00]
 [-1.25145581e-01  2.99833030e+00]
 [-1.10422572e-01  3.01493700e+00]
 [-8.09765525e-02  3.03210820e+00]
 [-6.62535429e-02  3.04879220e+00]
 [-5.88920382e-02  3.06545500e+00]
 [-5.88920382e-02  3.08212070e+00]
 [-5.88920382e-02  3.09879060e+00]
 [-5.88920382e-02  3.11545230e+00]
 [-5.15305334e-02  3.13211660e+00]
 [-5.15305334e-02  3.14878800e+00]
 [-5.15305334e-02  3.16546990e+00]
 [-5.15305334e-02  3.18212860e+00]
 [-5.15305334e-02  3.19879340e+00]
 [-5.15305334e-02  3.21546980e+00]
 [-5.15305334e-02  3.23212410e+00]
 [-5.15305334e-02  3.24879770e+00]
 [-5.15305334e-02  3.26545870e+00]
 [-5.15305334e-02  3.28212190e+00]
 [-5.15305334e-02  3.29878740e+00]
 [-5.15305334e-02  3.31545780e+00]
 [-5.15305334e-02  3.33212390e+00]
 [-5.15305334e-02  3.34880640e+00]
 [-5.15305334e-02  3.36546170e+00]
 [-5.15305334e-02  3.38212910e+00]
 [-5.15305334e-02  3.39819320e+00]
 [-5.15305334e-02  3.41498070e+00]
 [-5.15305334e-02  3.43167270e+00]
 [-5.15305334e-02  3.44828370e+00]
 [-5.15305334e-02  3.46499870e+00]
 [-5.15305334e-02  3.48165490e+00]
 [-5.15305334e-02  3.49818200e+00]
 [-5.15305334e-02  3.51498270e+00]
 [-5.15305334e-02  3.53151660e+00]
 [-5.15305334e-02  3.54831870e+00]
 [-5.15305334e-02  3.56500250e+00]
 [-5.15305334e-02  3.58165010e+00]
 [-5.15305334e-02  3.59833600e+00]
 [-5.15305334e-02  3.61498230e+00]
 [-5.15305334e-02  3.63166720e+00]
 [-5.15305334e-02  3.64830240e+00]
 [-5.15305334e-02  3.66499960e+00]
 [-5.15305334e-02  3.68165400e+00]
 [-5.15305334e-02  3.69832920e+00]
 [-5.15305334e-02  3.71498370e+00]
 [-5.15305334e-02  3.73167360e+00]
 [-5.15305334e-02  3.74820720e+00]
 [-5.15305334e-02  3.76500900e+00]
 [-5.15305334e-02  3.78165380e+00]
 [-5.15305334e-02  3.79834120e+00]
 [-5.15305334e-02  3.81499160e+00]
 [-5.15305334e-02  3.83165190e+00]
 [-5.15305334e-02  3.84831640e+00]
 [-5.15305334e-02  3.86500090e+00]
 [-5.15305334e-02  3.88165720e+00]
 [-5.15305334e-02  3.89833300e+00]
 [-5.15305334e-02  3.91500080e+00]
 [-5.15305334e-02  3.93167620e+00]
 [-5.15305334e-02  3.94830560e+00]
 [-5.15305334e-02  3.96486700e+00]
 [-5.15305334e-02  3.98167120e+00]
 [-5.15305334e-02  3.99830100e+00]
 [-5.15305334e-02  4.01485860e+00]
 [-5.15305334e-02  4.03168410e+00]
 [-5.15305334e-02  4.04821370e+00]
 [-5.15305334e-02  4.06502970e+00]
 [-5.15305334e-02  4.08165910e+00]
 [-5.15305334e-02  4.09828460e+00]
 [-5.15305334e-02  4.11501440e+00]
 [-5.15305334e-02  4.13161850e+00]
 [-5.15305334e-02  4.14821630e+00]
 [-5.15305334e-02  4.16501180e+00]
 [-5.15305334e-02  4.18166550e+00]
 [-5.15305334e-02  4.19834590e+00]
 [-5.15305334e-02  4.21498880e+00]
 [-5.15305334e-02  4.23173840e+00]
 [-5.15305334e-02  4.24821450e+00]
 [-5.15305334e-02  4.26501100e+00]
 [-5.15305334e-02  4.28167340e+00]
 [-5.15305334e-02  4.29834670e+00]
 [-5.15305334e-02  4.31500690e+00]
 [-5.15305334e-02  4.33171690e+00]
 [-5.15305334e-02  4.34830500e+00]
 [-5.15305334e-02  4.36501420e+00]
 [-5.15305334e-02  4.38153370e+00]
 [-5.15305334e-02  4.39835210e+00]
 [-5.15305334e-02  4.41499480e+00]
 [-5.15305334e-02  4.43172410e+00]
 [-5.15305334e-02  4.44831080e+00]
 [-5.15305334e-02  4.46500910e+00]
 [-5.15305334e-02  4.48166420e+00]
 [-5.15305334e-02  4.49835240e+00]
 [-5.15305334e-02  4.51495290e+00]
 [-5.15305334e-02  4.53172150e+00]
 [-5.15305334e-02  4.54832040e+00]
 [-5.15305334e-02  4.56503270e+00]
 [-5.15305334e-02  4.58168700e+00]
 [-5.15305334e-02  4.59835490e+00]
 [-5.15305334e-02  4.61501760e+00]
 [-5.15305334e-02  4.63174270e+00]
 [-5.15305334e-02  4.64831150e+00]
 [-5.15305334e-02  4.66501690e+00]
 [-5.15305334e-02  4.68167900e+00]
 [-5.15305334e-02  4.69835440e+00]
 [-5.15305334e-02  4.71499980e+00]
 [-5.15305334e-02  4.73159570e+00]
 [-5.15305334e-02  4.74833410e+00]
 [-7.36150477e-02  4.76502010e+00]
 [-8.09765525e-02  4.78214360e+00]
 [-8.83380573e-02  4.79880850e+00]
 [-9.56995620e-02  4.81547860e+00]
 [-9.56995620e-02  4.83214530e+00]
 [-9.56995620e-02  4.84881340e+00]
 [-9.56995620e-02  4.86547260e+00]
 [-9.56995620e-02  4.88214490e+00]
 [-9.56995620e-02  4.89881240e+00]
 [-9.56995620e-02  4.91547990e+00]
 [-9.56995620e-02  4.93214490e+00]
 [-9.56995620e-02  4.94881080e+00]
 [-9.56995620e-02  4.96547810e+00]
 [-9.56995620e-02  4.98216350e+00]
 [-9.56995620e-02  4.99880980e+00]
 [-9.56995620e-02  5.01547840e+00]
 [-9.56995620e-02  5.03214400e+00]
 [-9.56995620e-02  5.04882220e+00]
 [-9.56995620e-02  5.06548400e+00]
 [-9.56995620e-02  5.08215360e+00]
 [-9.56995620e-02  5.09835970e+00]
 [-9.56995620e-02  5.11501100e+00]
 [-9.56995620e-02  5.13168720e+00]
 [-9.56995620e-02  5.14830060e+00]
 [-9.56995620e-02  5.16504120e+00]
 [-9.56995620e-02  5.18167060e+00]
 [-9.56995620e-02  5.19836180e+00]
 [-9.56995620e-02  5.21496750e+00]
 [-9.56995620e-02  5.23169290e+00]
 [-9.56995620e-02  5.24824470e+00]
 [-9.56995620e-02  5.26500880e+00]
 [-9.56995620e-02  5.28163600e+00]
 [-9.56995620e-02  5.29836300e+00]
 [-9.56995620e-02  5.31496610e+00]
 [-9.56995620e-02  5.33171040e+00]
 [-9.56995620e-02  5.34834470e+00]
 [-9.56995620e-02  5.36500700e+00]
 [-9.56995620e-02  5.38169320e+00]
 [-9.56995620e-02  5.39835930e+00]
 [-9.56995620e-02  5.41502310e+00]
 [-9.56995620e-02  5.43170340e+00]
 [-9.56995620e-02  5.44833690e+00]
 [-9.56995620e-02  5.46502830e+00]
 [-9.56995620e-02  5.48168100e+00]
 [-9.56995620e-02  5.49835650e+00]
 [-9.56995620e-02  5.51500810e+00]
 [-9.56995620e-02  5.53169520e+00]
 [-9.56995620e-02  5.54830290e+00]
 [-9.56995620e-02  5.56499460e+00]
 [-9.56995620e-02  5.58169300e+00]
 [-9.56995620e-02  5.59832240e+00]
 [-9.56995620e-02  5.61502350e+00]
 [-9.56995620e-02  5.63169030e+00]
 [-9.56995620e-02  5.64832440e+00]
 [-9.56995620e-02  5.66496610e+00]
 [-9.56995620e-02  5.68168450e+00]
 [-9.56995620e-02  5.69836610e+00]
 [-9.56995620e-02  5.71501220e+00]
 [-9.56995620e-02  5.73169900e+00]
 [-9.56995620e-02  5.74832400e+00]
 [-9.56995620e-02  5.76499800e+00]
 [-9.56995620e-02  5.78169390e+00]
 [-9.56995620e-02  5.79833050e+00]
 [-9.56995620e-02  5.81502830e+00]
 [-9.56995620e-02  5.83168120e+00]
 [-9.56995620e-02  5.84831040e+00]
 [-9.56995620e-02  5.86503680e+00]
 [-9.56995620e-02  5.88166420e+00]
 [-9.56995620e-02  5.89837030e+00]
 [-9.56995620e-02  5.91503400e+00]
 [-9.56995620e-02  5.93171210e+00]]",23,A,non_immersive,No,8,2024-04-29_12h57.19.455,Experiment_VR_non_immersive,60.016804704019236,
1,../amsterdam_dynamic_facial_expression_set/F01-Disgust-Face Forward.mp4,arousal,right,HV-LA,direct,0,,,,,0,1,1,0,"[[ 0.          0.0151628 ]
 [ 0.          0.03178   ]
 [ 0.          0.0483637 ]
 [ 0.          0.0654202 ]
 [ 0.          0.0816423 ]
 [ 0.          0.0994804 ]
 [ 0.          0.1150244 ]
 [ 0.          0.1325805 ]
 [ 0.          0.1483196 ]
 [ 0.          0.1658822 ]
 [ 0.          0.1816781 ]
 [ 0.          0.1992147 ]
 [ 0.          0.2149659 ]
 [ 0.          0.232535  ]
 [ 0.          0.2482733 ]
 [ 0.          0.2658302 ]
 [ 0.          0.2816561 ]
 [ 0.          0.2992219 ]
 [ 0.          0.3149983 ]
 [ 0.          0.3325704 ]
 [ 0.          0.3482949 ]
 [ 0.          0.3658229 ]
 [ 0.          0.3816091 ]
 [ 0.          0.3992041 ]
 [ 0.          0.4150341 ]
 [ 0.          0.4325167 ]
 [ 0.          0.448318  ]
 [ 0.          0.4656971 ]
 [ 0.          0.4815681 ]
 [ 0.          0.4992638 ]
 [ 0.          0.515032  ]
 [ 0.          0.532527  ]
 [ 0.          0.5483223 ]
 [ 0.          0.5658663 ]
 [ 0.          0.5816524 ]
 [ 0.          0.5991907 ]
 [ 0.          0.6150305 ]
 [ 0.          0.6325562 ]
 [ 0.          0.6482316 ]
 [ 0.          0.6658333 ]
 [ 0.          0.6816662 ]
 [ 0.          0.6991996 ]
 [ 0.          0.7150262 ]
 [ 0.          0.7325151 ]
 [ 0.          0.7483303 ]
 [ 0.          0.7656996 ]
 [ 0.          0.7815625 ]
 [ 0.          0.7992965 ]
 [ 0.          0.8149831 ]
 [ 0.          0.8325313 ]
 [ 0.          0.8483146 ]
 [ 0.          0.8658584 ]
 [ 0.          0.8816561 ]
 [ 0.          0.8991592 ]
 [ 0.          0.9153292 ]
 [ 0.          0.9330881 ]
 [ 0.          0.9486897 ]
 [ 0.          0.96638   ]
 [ 0.          0.981973  ]
 [ 0.          0.9993746 ]
 [ 0.          1.0150705 ]
 [ 0.11778408  1.0327882 ]
 [ 0.22820665  1.0487409 ]
 [ 0.27237568  1.0662312 ]
 [ 0.28709869  1.0820529 ]
 [ 0.31654471  1.0994793 ]
 [ 0.32390621  1.1151822 ]
 [ 0.32390621  1.1325401 ]
 [ 0.32390621  1.1483236 ]
 [ 0.32390621  1.165937  ]
 [ 0.32390621  1.1816829 ]
 [ 0.32390621  1.1991399 ]
 [ 0.32390621  1.2149503 ]
 [ 0.37543674  1.2325556 ]
 [ 0.39752126  1.2488931 ]
 [ 0.50058232  1.2659393 ]
 [ 0.6183664   1.2820428 ]
 [ 0.72142747  1.2996881 ]
 [ 0.82448853  1.3154947 ]
 [ 0.9201881   1.3330101 ]
 [ 0.96435713  1.3488014 ]
 [ 0.97908013  1.3663195 ]
 [ 0.97908013  1.3817011 ]
 [ 0.97908013  1.3992763 ]
 [ 1.          1.4152071 ]
 [ 1.          1.4326886 ]
 [ 1.          1.4482513 ]
 [ 1.          1.4658607 ]
 [ 1.          1.4816586 ]
 [ 1.          1.4992416 ]
 [ 1.          1.5150191 ]
 [ 1.          1.5329556 ]
 [ 0.98644164  1.5485261 ]
 [ 0.96435713  1.5660366 ]
 [ 0.95699562  1.581861  ]
 [ 0.94227261  1.5994138 ]
 [ 0.89810358  1.6155179 ]
 [ 0.75087349  1.6328118 ]
 [ 0.64045092  1.6487712 ]
 [ 0.54475135  1.6662324 ]
 [ 0.42696728  1.6821128 ]
 [ 0.27973718  1.6996422 ]
 [ 0.1545916   1.7154377 ]
 [ 0.01472301  1.7330157 ]
 [-0.13250709  1.7487773 ]
 [-0.25029116  1.7663394 ]
 [-0.36071373  1.782165  ]
 [-0.47849781  1.799735  ]
 [-0.57419737  1.815518  ]
 [-0.66989693  1.8330801 ]
 [-0.72878897  1.8488664 ]
 [-0.78768101  1.8659164 ]
 [-0.86129606  1.8820927 ]
 [-0.94227261  1.8996504 ]
 [-1.          1.915199  ]
 [-1.          1.9325934 ]
 [-1.          1.9484947 ]
 [-1.          1.9659577 ]
 [-1.          1.9818704 ]
 [-1.          1.9992205 ]
 [-1.          2.0149217 ]
 [-1.          2.032568  ]
 [-1.          2.0482942 ]
 [-1.          2.0659823 ]
 [-1.          2.0817221 ]
 [-1.          2.0992154 ]
 [-1.          2.1149755 ]
 [-1.          2.1325386 ]
 [-1.          2.1483092 ]
 [-1.          2.165877  ]
 [-1.          2.1816557 ]
 [-1.          2.1994634 ]
 [-1.          2.2152193 ]
 [-1.          2.2328023 ]
 [-0.96435713  2.2485145 ]
 [-0.83921154  2.2662865 ]
 [-0.73615048  2.2820383 ]
 [-0.66253543  2.2997199 ]
 [-0.62572791  2.3151908 ]
 [-0.59628189  2.3330176 ]
 [-0.57419737  2.3484995 ]
 [-0.54475135  2.3660437 ]
 [-0.50794383  2.3821511 ]
 [-0.48585931  2.3993987 ]
 [-0.44169029  2.4152364 ]
 [-0.36807524  2.4330275 ]
 [-0.3091832   2.4485263 ]
 [-0.25765267  2.4662175 ]
 [-0.22820665  2.4817141 ]
 [-0.20612213  2.4996828 ]
 [-0.18403762  2.5151262 ]
 [-0.1619531   2.5327368 ]
 [-0.13250709  2.548509  ]
 [-0.10306107  2.566332  ]
 [-0.07361505  2.5818441 ]
 [-0.05889204  2.5994508 ]
 [-0.05153053  2.6150144 ]
 [-0.02944602  2.6330486 ]
 [-0.01472301  2.6484977 ]
 [ 0.0073615   2.6659233 ]
 [ 0.03680752  2.6817264 ]
 [ 0.03680752  2.6991759 ]
 [ 0.03680752  2.7148948 ]
 [ 0.03680752  2.7325847 ]
