id,movie_path,dimension,hand,stimulus_type,order_emojis_slider,block,practice.thisRepN,practice.thisTrialN,practice.thisN,practice.thisIndex,trials.thisRepN,trials.thisTrialN,trials.thisN,trials.thisIndex,continuous_annotation,video_duration,valence_value,arousal_value,preference_value,engagement_value,familiarity_value,checkbox_Neutral,checkbox_Asco,checkbox_Felicidad,checkbox_Sorpresa,checkbox_Ira,checkbox_Miedo,checkbox_Tristeza,continuous_annotation_luminance,stim_value_green,stim_value,ID,Sesion,Tarea,Consumo de sustancias psicoactivas en las últimas 24 hs,Horas de sueño la noche anterior,date,exp_name,frame_rate,
99,../amsterdam_dynamic_facial_expression_set/F01-Fear-Face Forward.mp4,valence,right,LV-HA,direct,-1,0,0,0,0,,,,,"[[0.0, 0.02085520001128316], [0.0, 0.03722000005654991], [0.0, 0.05380140000488609], [0.0, 0.07042360003106296], [0.0, 0.08699930005241185], [0.0, 0.1038040000712499], [0.0, 0.12042000005021691], [0.0, 0.13716060004662722], [0.0, 0.1540989000350237], [0.0, 0.17048079997766763], [0.0, 0.18714659998659045], [0.0, 0.20389280002564192], [0.0, 0.22051070001907647], [0.0, 0.2372229000320658], [0.0, 0.25385640002787113], [0.0, 0.27044250001199543], [0.0, 0.2871929000830278], [0.0, 0.30389910005033016], [0.0, 0.3205343000590801], [0.0, 0.3371825000504032], [0.0, 0.35374819999560714], [0.0, 0.3705506999976933], [0.0, 0.3874754999997094], [0.0, 0.4037367000710219], [0.0, 0.42045970004983246], [0.0, 0.43706570006906986], [0.0, 0.45368020003661513], [0.0, 0.470517500070855], [0.0, 0.4871027000481263], [0.0, 0.5037554000737146], [0.0, 0.5204760000342503], [0.0, 0.5371935999719426], [0.0, 0.5538107000757009], [0.0, 0.5704858000390232], [0.0, 0.5871674000518396], [0.0, 0.6040930000599474], [0.0, 0.6205060000065714], [0.0, 0.6370884000789374], [0.0, 0.6538130000699311], [0.0, 0.670451799989678], [0.0, 0.687042300007306], [0.0, 0.7038577999919653], [0.0, 0.7202710000565276], [0.0, 0.7371993000851944], [0.0, 0.753766700043343], [0.0, 0.7704007000429556], [0.0, 0.7871701000258327], [0.0, 0.803803600021638], [0.0, 0.8205014000413939], [0.0, 0.8371583999833092], [0.0, 0.8538918000413105], [0.0, 0.8703589000506327], [0.0, 0.8871576000237837], [0.0, 0.9037226000800729], [0.0, 0.9203264000825584], [0.0, 0.937009199988097], [0.0, 0.9537160000763834], [0.0, 0.9704676000401378], [0.0, 0.987178000039421], [0.0, 1.0037700000684708], [0.0, 1.0203601000830531], [0.0, 1.0370507000479847], [0.0, 1.0537301000440493], [0.0, 1.0703977000666782], [0.0, 1.0869691000552848], [0.0, 1.1036962000653148], [0.0, 1.1203370000002906], [0.0, 1.1369887000182644], [0.0, 1.1536018999759108], [0.7361504771668499, 1.1702235999982804], [0.7361504771668499, 1.1871297999750823], [0.8097655248835349, 1.2035314000677317], [0.8171270296552033, 1.2203472000546753], [0.8171270296552033, 1.2369115999899805], [0.8171270296552033, 1.2537163000088185], [0.7950425153401981, 1.2702217000769451], [0.7950425153401981, 1.2870712000876665], [0.7950425153401981, 1.3035808000713587], [0.7950425153401981, 1.3203403999796137], [0.7876810105685295, 1.336861600051634], [0.765596496253524, 1.3538222999777645], [0.691981448536839, 1.370214099995792], [0.6551739246784964, 1.3872274999739602], [0.6551739246784964, 1.4034792999736965], [0.6551739246784964, 1.4203553000697866], [0.6772584389935019, 1.4368532000808045], [0.691981448536839, 1.4537643999792635], [0.7067044580801758, 1.4701950000599027], [0.7067044580801758, 1.4870485999854282], [0.7287889723951815, 1.503485199995339], [0.7287889723951815, 1.5203495000023395], [0.8097655248835349, 1.5368606999982148], [0.8465730487418774, 1.5537218999816105], [0.8465730487418774, 1.5703761000186205], [0.8465730487418774, 1.586944599985145], [0.8465730487418774, 1.603719100006856], [0.8612960582852145, 1.620253900066018], [0.8686575630568831, 1.6370900999754667], [0.8686575630568831, 1.6536313000833616], [0.8686575630568831, 1.6704172000754625], [0.8686575630568831, 1.6870039000641555], [0.8760190678285515, 1.7034646000247449], [0.8907420773718884, 1.720352299977094], [0.8907420773718884, 1.7370677000144497], [0.898103582143557, 1.7535477000055835], [0.9054650869152256, 1.7703560000518337], [0.9275496012302309, 1.786896500037983], [0.9422726107735679, 1.8037778000580147], [0.9422726107735679, 1.8202032999834046], [0.9422726107735679, 1.8371468000113964], [0.9496341155452366, 1.8535018999828026], [0.956995620316905, 1.8702088000718504], [1, 1.8864198999945074], [1, 1.9029331000056118], [1, 1.9197740000672638], [1, 1.9364468000130728], [1, 1.9530881000682712], [1, 1.9696304000681266], [1, 1.9864253000123426], [1, 2.0031604000832886], [1, 2.019756600027904], [1, 2.036432299995795], [1, 2.0531005000229925], [1, 2.06971930002328], [1, 2.0862859999760985], [1, 2.1030680000549182], [1, 2.119683700031601], [1, 2.13644909998402], [1, 2.1530721000162885], [1, 2.1698643000563607], [1, 2.1864124999847263], [1, 2.2031275000190362], [1, 2.219739400083199], [1, 2.2364400000078604], [1, 2.253050500061363], [1, 2.269626200082712], [1, 2.286419100011699], [1, 2.3030602000653744], [1, 2.3196147000417113], [0.9422726107735679, 2.3370281000388786], [0.9201880964585625, 2.3535935999825597], [0.8612960582852145, 2.3704747000010684], [0.8318500391985406, 2.3869212000863627], [0.7508734867101869, 2.4037976000690833], [0.7287889723951815, 2.4202430000295863], [0.7067044580801758, 2.4371568000642583], [0.6993429533085074, 2.4535913000581786], [0.691981448536839, 2.470500700059347], [0.6404509151351594, 2.486903200042434], [0.5668358674184744, 2.5037862000754103], [0.500582324473458, 2.520155300037004], [0.45641329584344703, 2.537082100054249], [0.4196057719851045, 2.553494799998589], [0.40488276244176746, 2.5704767000861466], [0.36807523858342495, 2.5869192000245675], [0.3165447051817456, 2.6037614999804646], [0.2576526670083976, 2.620241899974644], [0.20612213360671805, 2.6371712000109255], [0.15459160020503848, 2.6535329000325873], [0.11778407634669597, 2.670509700081311], [0.05889203817334798, 2.6868485000450164], [0.03680752385834252, 2.7037572000408545], [-0.04416902863001104, 2.7201738000148907], [-0.05889203817334798, 2.7370553000364453], [-0.08097655248835356, 2.753547600004822], [-0.11042257157502755, 2.7705074000405148], [-0.13986859066170154, 2.7867684999946505], [-0.13986859066170154, 2.803994700079784], [-0.16931460974837553, 2.8204387000296265], [-0.20612213360671805, 2.9048220000695437], [-0.27237567655173445, 2.9203751999884844], [-0.279737181323403, 2.937324400059879], [-0.29446019086674, 2.9538334000390023], [-0.30182169563840844, 2.9706482000183314], [-0.3459907242684195, 2.9871888000052422], [-0.37543674335509347, 3.0039094000821933], [-0.3901597528984305, 3.0202931000385433], [-0.4564132958434469, 3.0372060000663623], [-0.47113630538678397, 3.053791100042872], [-0.500582324473458, 3.0705412999959663], [-0.500582324473458, 3.0870918000582606], [-0.5300283435601321, 3.1036465000361204], [-0.5300283435601321, 3.120511700049974], [-0.5521128578751375, 3.1370853000553325], [-0.6110048960484855, 3.153840000042692], [-0.6110048960484855, 3.170507000060752], [-0.6551739246784964, 3.1871095000533387], [-0.6698969342218335, 3.2039077000226825], [-0.706704458080176, 3.2204749999800697], [-0.706704458080176, 3.237229600083083], [-0.706704458080176, 3.253842100035399], [-0.8097655248835349, 3.2704628000501543], [-0.8097655248835349, 3.2871036999858916], [-0.8097655248835349, 3.30404489999637], [-0.8097655248835349, 3.3205397999845445], [-0.8097655248835349, 3.337177600013092], [-0.9201880964585625, 3.3538079999852926], [-0.9201880964585625, 3.3705632999772206], [-0.9201880964585625, 3.3871483000693843], [-0.9643571250885735, 3.403815899975598], [-0.9643571250885735, 3.4205252000829205], [-0.971718629860242, 3.4370605000294745], [-0.971718629860242, 3.4538811000529677], [-0.971718629860242, 3.4705632000695914], [-0.986441639403579, 3.4870907000731677], [-1, 3.503245700034313], [-1, 3.5199575000442564], [-1, 3.5365368999773636], [-1, 3.5533151000272483], [-1, 3.5698195999721065], [-1, 3.586347799981013], [-1, 3.603160500060767], [-1, 3.6198544000508264], [-1, 3.6365015000337735], [-1, 3.65317689999938], [-1, 3.6698857999872416], [-1, 3.6864387000678107], [-1, 3.703190300031565], [-1, 3.7198656999971718], [-1, 3.736554100061767], [-1, 3.753195199999027], [-1, 3.7698727999813855], [-1, 3.786352000082843], [-1, 3.8031997000798583], [-1, 3.8197455999907106], [-1, 3.8365471999859437], [-1, 3.853085400070995], [-1, 3.8698860000586137], [-1, 3.8865502000553533], [-1, 3.903296999982558], [-1, 3.919744300073944], [-0.9938031441752475, 3.9370721000013873], [-0.9938031441752475, 3.9536800000350922], [-0.971718629860242, 3.9702131000813097], [-0.956995620316905, 3.987274100072682], [-0.956995620316905, 4.003831400070339], [-0.9422726107735679, 4.020283800084144], [-0.9201880964585625, 4.037315999972634], [-0.9201880964585625, 4.0539327000733465], [-0.912826591686894, 4.070405200007372], [-0.912826591686894, 4.087013500044122], [-0.8907420773718885, 4.103620300069451], [-0.8907420773718885, 4.1206037000520155], [-0.8907420773718885, 4.137064000009559], [-0.853934553513546, 4.153636800008826], [-0.853934553513546, 4.17050270002801], [-0.853934553513546, 4.187091600033455], [-0.824488534426872, 4.203819000045769], [-0.8097655248835349, 4.22034960007295], [-0.765596496253524, 4.237257100059651], [-0.7361504771668499, 4.253825500025414], [-0.691981448536839, 4.270523200044408], [-0.6625354294501651, 4.287178999977186], [-0.6404509151351594, 4.303860699990764], [-0.6404509151351594, 4.320571499993093], [-0.6110048960484855, 4.3370254000183195], [-0.544751353103469, 4.353924600058235], [-0.500582324473458, 4.37035940005444], [-0.47113630538678397, 4.387214099988341], [-0.46377480061511556, 4.403610500041395], [-0.43432878152844145, 4.42048580001574], [-0.4196057719851044, 4.437045500031672], [-0.3901597528984305, 4.45392720005475], [-0.3459907242684195, 4.470395600073971], [-0.30918320041007696, 4.487165400059894], [-0.30918320041007696, 4.503929099999368], [-0.30918320041007696, 4.520590899977833], [-0.29446019086674, 4.537021700059995], [-0.29446019086674, 4.553918000077829], [-0.29446019086674, 4.570463299984112], [-0.2650141717800659, 4.587017600075342], [-0.25029116223672887, 4.603772500064224], [-0.25029116223672887, 4.620496500050649], [-0.25029116223672887, 4.637126800022088], [-0.2208451431500551, 4.6536416000453755], [-0.2208451431500551, 4.670463100075722], [-0.2208451431500551, 4.687079300056212], [-0.21348363837838658, 4.7036027000285685], [-0.161953104976707, 4.720508099999279], [-0.161953104976707, 4.737245500087738], [-0.161953104976707, 4.753896799986251], [-0.161953104976707, 4.770513899973594], [-0.161953104976707, 4.786959500052035], [-0.15459160020503848, 4.803562800050713], [-0.13250708589003302, 4.8205208000727], [-0.10306106680335902, 4.837146100006066], [-0.10306106680335902, 4.853580499999225], [-0.08097655248835356, 4.870508600026369], [-0.08097655248835356, 4.887230299995281], [-0.08097655248835356, 4.903838700032793], [-0.07361504771668503, 4.9203960000304505], [-0.05153053340167957, 4.937252099975012], [-0.04416902863001104, 4.953835200052708], [-0.04416902863001104, 4.9705370999872684], [-0.04416902863001104, 4.987095699994825], [-0.04416902863001104, 5.003874500049278], [-0.04416902863001104, 5.020540700061247], [-0.04416902863001104, 5.037205800064839], [-0.04416902863001104, 5.053964600083418], [-0.04416902863001104, 5.070624400046654], [-0.04416902863001104, 5.087193400016986], [-0.022084514315005466, 5.103639699984342], [-0.022084514315005466, 5.120519199990667], [-0.022084514315005466, 5.137242799974047], [-0.014723009543337051, 5.153833799995482], [-0.014723009543337051, 5.170397800044157], [-0.014723009543337051, 5.186951200012118], [-0.014723009543337051, 5.203738900017925], [-0.014723009543337051, 5.220385399996303], [-0.014723009543337051, 5.237210200051777], [-0.014723009543337051, 5.253744799993001], [-0.014723009543337051, 5.270537100033835], [-0.014723009543337051, 5.287173800054006], [-0.014723009543337051, 5.303787800017744], [-0.014723009543337051, 5.320402399986051], [-0.014723009543337051, 5.337241900037043], [-0.014723009543337051, 5.353953600046225], [-0.014723009543337051, 5.370405000052415], [-0.014723009543337051, 5.3869366000872105], [-0.014723009543337051, 5.403839600039646], [-0.014723009543337051, 5.420358699979261], [-0.014723009543337051, 5.437251799972728], [-0.014723009543337051, 5.453866900061257], [-0.014723009543337051, 5.470625900081359], [-0.014723009543337051, 5.4872004999779165], [-0.014723009543337051, 5.503832900081761], [-0.014723009543337051, 5.5205514000263065], [-0.014723009543337051, 5.537108700023964], [-0.014723009543337051, 5.5537844999926165], [-0.014723009543337051, 5.570375900017098], [-0.014723009543337051, 5.586891200044192], [-0.014723009543337051, 5.60372420004569], [-0.014723009543337051, 5.620315400068648], [-0.014723009543337051, 5.637137999990955], [-0.014723009543337051, 5.65384919999633], [-0.014723009543337051, 5.670428500045091], [-0.014723009543337051, 5.687072100001387], [-0.014723009543337051, 5.703729600063525], [-0.022084514315005466, 5.7202146999770775], [-0.022084514315005466, 5.737121200072579], [-0.022084514315005466, 5.753670700010844], [-0.022084514315005466, 5.770460100029595], [-0.022084514315005466, 5.787032800028101], [-0.02944601908667399, 5.803596200072207], [-0.02944601908667399, 5.820366100058891], [-0.02944601908667399, 5.837091600056738], [-0.02944601908667399, 5.853740300051868], [-0.02944601908667399, 5.870533499983139], [-0.02944601908667399, 5.887055800063536], [-0.02944601908667399, 5.903737900080159], [-0.02944601908667399, 5.920432100072503], [-0.02944601908667399, 5.937137700035237], [-0.02944601908667399, 5.95375410001725], [-0.02944601908667399, 5.9703591000288725], [-0.02944601908667399, 5.987020900007337], [-0.05153053340167957, 6.003578900010325], [-0.05153053340167957, 6.020415800041519], [-0.05153053340167957, 6.037004900048487], [-0.05153053340167957, 6.0535913000348955]]",6.01,,,,,,,,,,,,,,,,40,A,non_immersive,No,8,2024-05-03_19h05.38.162,Experiment_VR_non_immersive,60.00355222336924,
2,../amsterdam_dynamic_facial_expression_set/F01-Disgust-Face Forward.mp4,arousal,right,HV-LA,direct,0,,,,,0,0,0,1,"[[ 0.          0.0075015 ]
 [ 0.          0.0242483 ]
 [ 0.          0.0409416 ]
 [ 0.          0.0583935 ]
 [ 0.          0.074377  ]
 [ 0.          0.0920695 ]
 [ 0.          0.1077147 ]
 [ 0.          0.125411  ]
 [ 0.          0.1409789 ]
 [ 0.          0.1586411 ]
 [ 0.          0.1744008 ]
 [ 0.          0.1920644 ]
 [ 0.          0.2076543 ]
 [ 0.          0.2253388 ]
 [ 0.          0.2410387 ]
 [ 0.          0.2588384 ]
 [ 0.          0.2743649 ]
 [ 0.          0.2920367 ]
 [ 0.          0.3076288 ]
 [ 0.          0.325176  ]
 [ 0.          0.3409915 ]
 [ 0.          0.3585955 ]
 [ 0.          0.3743624 ]
 [ 0.          0.3919319 ]
 [ 0.          0.4075437 ]
 [ 0.          0.425323  ]
 [ 0.          0.4410791 ]
 [ 0.          0.4585934 ]
 [ 0.          0.4742183 ]
 [ 0.          0.4918135 ]
 [ 0.          0.507548  ]
 [ 0.          0.5252988 ]
 [ 0.          0.5408701 ]
 [ 0.          0.5586155 ]
 [ 0.          0.5742006 ]
 [ 0.          0.5920376 ]
 [ 0.          0.6076317 ]
 [ 0.          0.6253175 ]
 [ 0.          0.6410025 ]
 [ 0.          0.6586834 ]
 [ 0.          0.6742642 ]
 [ 0.          0.6918487 ]
 [ 0.          0.7075353 ]
 [ 0.          0.7253418 ]
 [ 0.          0.7408269 ]
 [ 0.          0.7584306 ]
 [ 0.          0.7741699 ]
 [ 0.          0.7917534 ]
 [ 0.          0.8075782 ]
 [ 0.          0.8251448 ]
 [ 0.          0.8408568 ]
 [ 0.          0.8584333 ]
 [ 0.          0.8742174 ]
 [ 0.          0.8917511 ]
 [ 0.          0.9075099 ]
 [ 0.          0.9252726 ]
 [ 0.          0.940948  ]
 [ 0.          0.9585825 ]
 [ 0.          0.9742203 ]
 [ 0.          0.9917775 ]
 [ 0.          1.0076596 ]
 [ 0.04416903  1.0252111 ]
 [ 0.04416903  1.0409502 ]
 [ 0.11778408  1.0584219 ]
 [ 0.17667611  1.0741885 ]
 [ 0.23556815  1.0916435 ]
 [ 0.25765267  1.1075072 ]
 [ 0.25765267  1.1251778 ]
 [ 0.25765267  1.1407856 ]
 [ 0.29446019  1.158526  ]
 [ 0.29446019  1.1742364 ]
 [ 0.33862922  1.1916448 ]
 [ 0.36071373  1.2075415 ]
 [ 0.37543674  1.2250512 ]
 [ 0.39752126  1.2409276 ]
 [ 0.44905179  1.2583854 ]
 [ 0.47849781  1.2742123 ]
 [ 0.47849781  1.2916927 ]
 [ 0.53738985  1.3075161 ]
 [ 0.53738985  1.3250607 ]
 [ 0.56683587  1.3408184 ]
 [ 0.58155888  1.3583067 ]
 [ 0.58155888  1.3741769 ]
 [ 0.58155888  1.3917443 ]
 [ 0.58892038  1.4074168 ]
 [ 0.6110049   1.4251894 ]
 [ 0.6110049   1.4407362 ]
 [ 0.67725844  1.4586732 ]
 [ 0.69934295  1.4740085 ]
 [ 0.75823499  1.4918266 ]
 [ 0.75823499  1.5073954 ]
 [ 0.81712703  1.5252689 ]
 [ 0.86129606  1.540741  ]
 [ 0.87601907  1.55857   ]
 [ 0.89074208  1.5740104 ]
 [ 0.90546509  1.5918825 ]
 [ 0.9275496   1.6074258 ]
 [ 0.94963412  1.6252284 ]
 [ 0.97171863  1.6407663 ]
 [ 0.97908013  1.6585727 ]
 [ 0.97908013  1.6740124 ]
 [ 0.98644164  1.6918917 ]
 [ 1.          1.7073389 ]
 [ 1.          1.7251926 ]
 [ 1.          1.7407469 ]
 [ 1.          1.7585125 ]
 [ 1.          1.7742013 ]
 [ 1.          1.7917435 ]
 [ 1.          1.8075296 ]
 [ 1.          1.8250178 ]
 [ 1.          1.8409978 ]
 [ 1.          1.8584887 ]
 [ 1.          1.8742782 ]
 [ 1.          1.8917455 ]
 [ 1.          1.907549  ]
 [ 1.          1.9253727 ]
 [ 1.          1.9409756 ]
 [ 1.          1.9585327 ]
 [ 1.          1.9742659 ]
 [ 1.          1.9916883 ]
 [ 1.          2.0075595 ]
 [ 1.          2.0250587 ]
 [ 0.79504252  2.0409635 ]
 [ 0.79504252  2.0583143 ]
 [ 0.36807524  2.0742502 ]
 [ 0.36807524  2.0917646 ]
 [ 0.20612213  2.1073822 ]
 [ 0.08833806  2.125216  ]
 [ 0.03680752  2.1408422 ]
 [ 0.01472301  2.1585491 ]
 [ 0.01472301  2.1742315 ]
 [ 0.01472301  2.1918113 ]
 [ 0.01472301  2.207422  ]
 [-0.02944602  2.225252  ]
 [-0.05889204  2.2407806 ]
 [-0.12514558  2.2585936 ]
 [-0.12514558  2.2741434 ]
 [-0.13986859  2.2920187 ]
 [-0.18403762  2.3074047 ]
 [-0.20612213  2.3251941 ]
 [-0.20612213  2.3408387 ]
 [-0.26501417  2.3587045 ]
 [-0.27237568  2.3741681 ]
 [-0.3018217   2.3920392 ]
 [-0.3091832   2.4073688 ]
 [-0.33126771  2.4251942 ]
 [-0.34599072  2.4407827 ]
 [-0.36071373  2.4585239 ]
 [-0.37543674  2.4740928 ]
 [-0.39015975  2.492042  ]
 [-0.44169029  2.5075015 ]
 [-0.44169029  2.5254886 ]
 [-0.47113631  2.540781  ]
 [-0.50058232  2.5585454 ]
 [-0.51530533  2.574141  ]
 [-0.52266684  2.5920835 ]
 [-0.58155888  2.6074613 ]
 [-0.58155888  2.6253181 ]
 [-0.65517392  2.6408575 ]
 [-0.66989693  2.6586344 ]
 [-0.73615048  2.6741404 ]
 [-0.73615048  2.6919731 ]
 [-0.82448853  2.7074304 ]
 [-0.82448853  2.7253576 ]
 [-0.85393455  2.7408614 ]
 [-0.87601907  2.7586212 ]
 [-0.90546509  2.7741525 ]
 [-0.90546509  2.7921003 ]
 [-0.90546509  2.8076473 ]
 [-0.93491111  2.8252904 ]
 [-0.95699562  2.8408879 ]
 [-0.97171863  2.8587151 ]
 [-0.99380314  2.8741718 ]
 [-1.          2.8921082 ]
 [-1.          2.9076373 ]
 [-1.          2.9252196 ]
 [-1.          2.9409694 ]
 [-1.          2.9585816 ]
 [-1.          2.9742552 ]
 [-1.          2.9918885 ]
 [-1.          3.0075819 ]
 [-1.          3.0252365 ]
 [-1.          3.0409248 ]
 [-1.          3.0586901 ]
 [-1.          3.0742421 ]
 [-1.          3.091877  ]
 [-1.          3.1076125 ]
 [-1.          3.125263  ]
 [-1.          3.1409504 ]
 [-1.          3.1585417 ]
 [-1.          3.1742944 ]
 [-1.          3.1917211 ]
 [-1.          3.2076056 ]
 [-1.          3.2253987 ]
 [-1.          3.2409585 ]
 [-1.          3.2586623 ]
 [-1.          3.2743258 ]
 [-1.          3.2919178 ]
 [-1.          3.3077009 ]
 [-1.          3.3252388 ]
 [-1.          3.340955  ]
 [-1.          3.3587125 ]
 [-1.          3.3741684 ]
 [-1.          3.3920399 ]
 [-1.          3.4074964 ]
 [-0.90546509  3.4254554 ]
 [-0.90546509  3.4409711 ]
 [-0.86129606  3.458487  ]
 [-0.84657305  3.4743876 ]
 [-0.78031951  3.4918673 ]
 [-0.75087349  3.5075778 ]
 [-0.73615048  3.5250918 ]
 [-0.69198145  3.5409568 ]
 [-0.66253543  3.5584626 ]
 [-0.66253543  3.5743101 ]
 [-0.6110049   3.591781  ]
 [-0.6110049   3.6075649 ]
 [-0.57419737  3.6254051 ]
 [-0.54475135  3.6409666 ]
 [-0.49322082  3.6588463 ]
 [-0.49322082  3.6743478 ]
 [-0.48585931  3.6921402 ]
 [-0.48585931  3.7076864 ]
 [-0.47113631  3.7251399 ]
 [-0.4564133   3.7409626 ]
 [-0.38279825  3.7584168 ]
 [-0.37543674  3.7742705 ]
 [-0.34599072  3.7917302 ]
 [-0.33126771  3.8077282 ]
 [-0.29446019  3.8252441 ]
 [-0.25029116  3.8409128 ]
 [-0.21348364  3.8584752 ]
 [-0.21348364  3.8742748 ]
 [-0.18403762  3.8919393 ]
 [-0.1545916   3.9075748 ]
 [-0.13986859  3.9251113 ]
 [-0.12514558  3.9409962 ]
 [-0.10306107  3.95863   ]
 [-0.10306107  3.9743707 ]
 [-0.08097655  3.9917099 ]
 [-0.08097655  4.0075843 ]
 [-0.08097655  4.0251523 ]
 [-0.07361505  4.0409265 ]
 [-0.05153053  4.0584305 ]
 [-0.05153053  4.0742657 ]
 [-0.04416903  4.0919682 ]
 [-0.01472301  4.1075036 ]
 [ 0.0073615   4.1254236 ]
 [ 0.0073615   4.1410527 ]
 [ 0.0073615   4.1587362 ]
 [ 0.01472301  4.1741846 ]
 [ 0.01472301  4.1921734 ]
 [ 0.01472301  4.2076118 ]
 [ 0.01472301  4.2251952 ]
 [ 0.01472301  4.2409216 ]
 [ 0.01472301  4.2587643 ]
 [ 0.01472301  4.2743991 ]
 [ 0.01472301  4.2918572 ]
 [ 0.01472301  4.307664  ]
 [ 0.01472301  4.3252527 ]
 [ 0.01472301  4.3409654 ]
 [ 0.01472301  4.3585489 ]
 [ 0.01472301  4.3742674 ]
 [ 0.01472301  4.3918904 ]
 [ 0.01472301  4.4075939 ]
 [ 0.01472301  4.4252563 ]
 [ 0.01472301  4.440978  ]
 [ 0.01472301  4.4585063 ]
 [ 0.01472301  4.4743579 ]
 [ 0.01472301  4.4918281 ]
 [ 0.01472301  4.5075797 ]
 [ 0.01472301  4.5251314 ]
 [ 0.01472301  4.5409917 ]
 [ 0.01472301  4.558536  ]
 [ 0.01472301  4.5742008 ]
 [ 0.01472301  4.5918237 ]
 [ 0.01472301  4.6075659 ]
 [ 0.01472301  4.6252539 ]
 [ 0.01472301  4.6409829 ]
 [ 0.01472301  4.6585855 ]
 [ 0.01472301  4.6743491 ]
 [ 0.01472301  4.6918625 ]
 [ 0.01472301  4.7075971 ]
 [ 0.01472301  4.7252671 ]
 [ 0.01472301  4.7409508 ]
 [ 0.01472301  4.7585021 ]
 [ 0.01472301  4.7742738 ]
 [ 0.01472301  4.7917637 ]
 [ 0.01472301  4.8075739 ]
 [ 0.01472301  4.8253036 ]
 [ 0.01472301  4.8410038 ]
 [ 0.01472301  4.8585409 ]
 [ 0.01472301  4.8742734 ]
 [ 0.01472301  4.8918431 ]
 [ 0.01472301  4.9075846 ]
 [ 0.01472301  4.9251284 ]
 [ 0.01472301  4.940989  ]
 [ 0.01472301  4.9585317 ]
 [ 0.01472301  4.9743129 ]
 [ 0.01472301  4.9918359 ]
 [ 0.01472301  5.0077339 ]
 [ 0.01472301  5.0254231 ]
 [ 0.01472301  5.0410701 ]
 [ 0.01472301  5.0587287 ]
 [ 0.01472301  5.074372  ]
 [ 0.01472301  5.0918756 ]
 [ 0.01472301  5.1076378 ]
 [ 0.01472301  5.1251956 ]
 [ 0.01472301  5.1410458 ]
 [ 0.01472301  5.1584407 ]
 [ 0.01472301  5.1742925 ]
 [ 0.01472301  5.1918261 ]
 [ 0.01472301  5.2076186 ]
 [ 0.01472301  5.2252644 ]
 [ 0.01472301  5.2409445 ]
 [ 0.01472301  5.2584955 ]
 [ 0.01472301  5.2743559 ]
 [ 0.01472301  5.2917759 ]
 [ 0.01472301  5.307628  ]
 [ 0.01472301  5.3251571 ]
 [ 0.01472301  5.340958  ]
 [ 0.01472301  5.3585688 ]
 [ 0.01472301  5.374321  ]
 [ 0.01472301  5.3918018 ]
 [ 0.01472301  5.4075799 ]
 [ 0.01472301  5.4251328 ]
 [ 0.01472301  5.4409709 ]
 [ 0.01472301  5.4585061 ]
 [ 0.01472301  5.4743195 ]
 [ 0.01472301  5.4918433 ]
 [ 0.01472301  5.5076091 ]
 [ 0.01472301  5.5253716 ]
 [ 0.01472301  5.5409522 ]
 [ 0.01472301  5.5585315 ]
 [ 0.01472301  5.5743038 ]
 [ 0.01472301  5.5917618 ]
 [ 0.01472301  5.6076886 ]
 [ 0.01472301  5.625253  ]
 [ 0.01472301  5.6410027 ]
 [ 0.01472301  5.6585546 ]
 [ 0.01472301  5.6743492 ]
 [ 0.01472301  5.6917934 ]
 [ 0.01472301  5.7076712 ]
 [ 0.01472301  5.7252905 ]
 [ 0.01472301  5.7410302 ]
 [ 0.01472301  5.7585332 ]
 [ 0.01472301  5.7742401 ]
 [ 0.01472301  5.7918478 ]
 [ 0.01472301  5.8077099 ]
 [ 0.01472301  5.8251512 ]
 [ 0.01472301  5.8410222 ]
 [ 0.01472301  5.8585255 ]
 [ 0.01472301  5.8743281 ]
 [ 0.01472301  5.891805  ]
 [ 0.01472301  5.9075777 ]
 [ 0.01472301  5.9251567 ]
 [ 0.01472301  5.9409983 ]
 [ 0.01472301  5.9585139 ]
 [ 0.01472301  5.9742922 ]
 [ 0.01472301  5.9918465 ]
 [ 0.01472301  6.0076488 ]
 [ 0.01472301  6.0248794 ]
 [ 0.01472301  6.0414479 ]]",6.01,None,None,None,None,None,False,False,False,True,False,False,False,"[[ 0.00000000e+00  7.29993917e-06]
 [ 1.00000000e+00  1.29340000e-02]
 [ 1.00000000e+00  2.96777000e-02]
 [ 1.00000000e+00  4.63485999e-02]
 [ 1.00000000e+00  6.29906000e-02]
 [ 1.00000000e+00  7.96503000e-02]
 [ 1.00000000e+00  9.63446000e-02]
 [ 1.00000000e+00  1.12992000e-01]
 [ 1.00000000e+00  1.29655900e-01]
 [ 1.00000000e+00  1.46321700e-01]
 [ 1.00000000e+00  1.63015900e-01]
 [ 1.00000000e+00  1.79649200e-01]
 [ 1.00000000e+00  1.96323200e-01]
 [ 1.00000000e+00  2.12986100e-01]
 [ 1.00000000e+00  2.29650100e-01]
 [ 1.00000000e+00  2.46331500e-01]
 [ 1.00000000e+00  2.63014400e-01]
 [ 1.00000000e+00  2.79152500e-01]
 [ 1.00000000e+00  2.95756800e-01]
 [ 1.00000000e+00  3.12541400e-01]
 [ 1.00000000e+00  3.29172100e-01]
 [ 1.00000000e+00  3.45638800e-01]
 [ 1.00000000e+00  3.62467800e-01]
 [ 9.86441639e-01  3.79149200e-01]
 [ 9.79080135e-01  3.95760500e-01]
 [ 9.56995620e-01  4.12434700e-01]
 [ 9.56995620e-01  4.29021900e-01]
 [ 9.20188096e-01  4.45687300e-01]
 [ 9.20188096e-01  4.62436900e-01]
 [ 8.90742077e-01  4.79100200e-01]
 [ 8.90742077e-01  4.95762300e-01]
 [ 9.05465087e-01  5.12446300e-01]
 [ 9.20188096e-01  5.28972600e-01]
 [ 9.27549601e-01  5.45886600e-01]
 [ 9.42272611e-01  5.62356800e-01]
 [ 9.42272611e-01  5.79147900e-01]
 [ 9.27549601e-01  5.95764000e-01]
 [ 9.05465087e-01  6.12463200e-01]
 [ 9.05465087e-01  6.28981300e-01]
 [ 9.05465087e-01  6.45820500e-01]
 [ 9.05465087e-01  6.62471600e-01]
 [ 9.05465087e-01  6.79161200e-01]
 [ 9.05465087e-01  6.95681000e-01]
 [ 9.05465087e-01  7.12441100e-01]
 [ 9.05465087e-01  7.29025400e-01]
 [ 9.05465087e-01  7.45847500e-01]
 [ 9.05465087e-01  7.62441300e-01]
 [ 9.05465087e-01  7.79099600e-01]
 [ 9.20188096e-01  7.95864100e-01]
 [ 9.20188096e-01  8.12456600e-01]
 [ 9.27549601e-01  8.29189500e-01]
 [ 9.27549601e-01  8.45692800e-01]
 [ 9.27549601e-01  8.62479200e-01]
 [ 9.49634116e-01  8.79107700e-01]
 [ 9.56995620e-01  8.95686500e-01]
 [ 9.71718630e-01  9.12478900e-01]
 [ 1.00000000e+00  9.29033800e-01]
 [ 1.00000000e+00  9.45822300e-01]
 [ 1.00000000e+00  9.62471300e-01]
 [ 1.00000000e+00  9.79117600e-01]
 [ 1.00000000e+00  9.95768600e-01]
 [ 1.00000000e+00  1.01236690e+00]
 [ 1.00000000e+00  1.02902630e+00]
 [ 1.00000000e+00  1.04636060e+00]
 [ 1.00000000e+00  1.06294810e+00]
 [ 1.00000000e+00  1.07970390e+00]
 [ 1.00000000e+00  1.09634970e+00]
 [ 1.00000000e+00  1.11301620e+00]
 [ 1.00000000e+00  1.12968410e+00]
 [ 1.00000000e+00  1.14629110e+00]
 [ 1.00000000e+00  1.16302280e+00]
 [ 1.00000000e+00  1.17968200e+00]
 [ 1.00000000e+00  1.19635770e+00]
 [ 1.00000000e+00  1.21303290e+00]
 [ 1.00000000e+00  1.22968950e+00]
 [ 1.00000000e+00  1.24634880e+00]
 [ 1.00000000e+00  1.26295470e+00]
 [ 1.00000000e+00  1.27970760e+00]
 [ 1.00000000e+00  1.29635330e+00]
 [ 1.00000000e+00  1.31301260e+00]
 [ 1.00000000e+00  1.32967810e+00]
 [ 1.00000000e+00  1.34635510e+00]
 [ 1.00000000e+00  1.36301830e+00]
 [ 1.00000000e+00  1.37969110e+00]
 [ 1.00000000e+00  1.39635660e+00]
 [ 1.00000000e+00  1.41304080e+00]
 [ 1.00000000e+00  1.42969880e+00]
 [ 1.00000000e+00  1.44635900e+00]
 [ 1.00000000e+00  1.46302110e+00]
 [ 1.00000000e+00  1.47970700e+00]
 [ 1.00000000e+00  1.49635590e+00]
 [ 1.00000000e+00  1.51292640e+00]
 [ 9.56995620e-01  1.52969320e+00]
 [ 8.98103582e-01  1.54629490e+00]
 [ 8.39211544e-01  1.56302040e+00]
 [ 8.39211544e-01  1.57963760e+00]
 [ 7.28788972e-01  1.59637200e+00]
 [ 6.11004896e-01  1.61297370e+00]
 [ 6.11004896e-01  1.62969680e+00]
 [ 5.15305334e-01  1.64637410e+00]
 [ 4.56413296e-01  1.66296720e+00]
 [ 4.19605772e-01  1.67969640e+00]
 [ 2.57652667e-01  1.69630180e+00]
 [ 1.91399124e-01  1.71303320e+00]
 [ 1.39868591e-01  1.72959640e+00]
 [ 1.17784076e-01  1.74636890e+00]
 [ 8.09765525e-02  1.76293520e+00]
 [ 4.41690286e-02  1.77968890e+00]
 [ 1.47230095e-02  1.79629240e+00]
 [-2.20845143e-02  1.81301900e+00]
 [-5.15305334e-02  1.82960560e+00]
 [-1.10422572e-01  1.84635700e+00]
 [-1.91399124e-01  1.86297460e+00]
 [-3.01821696e-01  1.87968140e+00]
 [-3.53352229e-01  1.89628060e+00]
 [-4.12244267e-01  1.91301580e+00]
 [-4.93220820e-01  1.92964750e+00]
 [-6.11004896e-01  1.94635710e+00]
 [-6.40450915e-01  1.96295560e+00]
 [-7.14065963e-01  1.97968420e+00]
 [-7.72958001e-01  1.99579380e+00]
 [-7.72958001e-01  2.01251140e+00]
 [-8.46573049e-01  2.02904760e+00]
 [-8.46573049e-01  2.04569720e+00]
 [-9.05465087e-01  2.06303480e+00]
 [-9.34911106e-01  2.07964240e+00]
 [-9.71718630e-01  2.09637890e+00]
 [-9.86441639e-01  2.11298550e+00]
 [-9.93803144e-01  2.12970200e+00]
 [-1.00000000e+00  2.14631190e+00]
 [-1.00000000e+00  2.16304110e+00]
 [-1.00000000e+00  2.17962750e+00]
 [-1.00000000e+00  2.19635940e+00]
 [-1.00000000e+00  2.21295370e+00]
 [-1.00000000e+00  2.22971310e+00]
 [-1.00000000e+00  2.24635760e+00]
 [-1.00000000e+00  2.26296510e+00]
 [-1.00000000e+00  2.27969670e+00]
 [-1.00000000e+00  2.29636700e+00]
 [-1.00000000e+00  2.31302130e+00]
 [-1.00000000e+00  2.32971120e+00]
 [-1.00000000e+00  2.34636620e+00]
 [-1.00000000e+00  2.36304470e+00]
 [-1.00000000e+00  2.37969600e+00]
 [-1.00000000e+00  2.39637540e+00]
 [-1.00000000e+00  2.41303190e+00]
 [-1.00000000e+00  2.42969610e+00]
 [-1.00000000e+00  2.44636640e+00]
 [-1.00000000e+00  2.46304290e+00]
 [-1.00000000e+00  2.47971050e+00]
 [-1.00000000e+00  2.49631680e+00]
 [-1.00000000e+00  2.51304130e+00]
 [-1.00000000e+00  2.52969870e+00]
 [-1.00000000e+00  2.54637810e+00]
 [-1.00000000e+00  2.56303830e+00]
 [-1.00000000e+00  2.57971510e+00]
 [-1.00000000e+00  2.59638190e+00]
 [-1.00000000e+00  2.61304420e+00]
 [-1.00000000e+00  2.62970880e+00]
 [-1.00000000e+00  2.64637180e+00]
 [-1.00000000e+00  2.66306210e+00]
 [-1.00000000e+00  2.67970040e+00]
 [-1.00000000e+00  2.69629590e+00]
 [-1.00000000e+00  2.71303690e+00]
 [-1.00000000e+00  2.72961240e+00]
 [-1.00000000e+00  2.74637950e+00]
 [-1.00000000e+00  2.76305460e+00]
 [-1.00000000e+00  2.77969710e+00]
 [-1.00000000e+00  2.79637790e+00]
 [-1.00000000e+00  2.81304740e+00]
 [-1.00000000e+00  2.82969520e+00]
 [-1.00000000e+00  2.84635890e+00]
 [-8.61296058e-01  2.86304870e+00]
 [-8.53934554e-01  2.87965030e+00]
 [-7.36150477e-01  2.89637780e+00]
 [-7.36150477e-01  2.91297590e+00]
 [-6.69896934e-01  2.92973220e+00]
 [-6.33089410e-01  2.94629810e+00]
 [-6.25727906e-01  2.96303520e+00]
 [-6.11004896e-01  2.97970160e+00]
 [-5.22666839e-01  2.99630840e+00]
 [-4.71136305e-01  3.01303120e+00]
 [-3.82798248e-01  3.02964210e+00]
 [-3.31267715e-01  3.04636420e+00]
 [-3.31267715e-01  3.06303660e+00]
 [-3.31267715e-01  3.07973160e+00]
 [-3.31267715e-01  3.09636980e+00]
 [-2.42929657e-01  3.11296940e+00]
 [-2.13483638e-01  3.12969990e+00]
 [-1.69314610e-01  3.14630230e+00]
 [-1.61953105e-01  3.16303690e+00]
 [-1.61953105e-01  3.17918000e+00]
 [-1.61953105e-01  3.19584500e+00]
 [-1.61953105e-01  3.21253880e+00]
 [-1.54591600e-01  3.22921060e+00]
 [-1.32507086e-01  3.24573430e+00]
 [-1.32507086e-01  3.26251240e+00]
 [-1.32507086e-01  3.27925460e+00]
 [-1.10422572e-01  3.29587070e+00]
 [-1.03061067e-01  3.31241670e+00]
 [-1.03061067e-01  3.32923840e+00]
 [-1.03061067e-01  3.34574050e+00]
 [-1.03061067e-01  3.36254120e+00]
 [-1.03061067e-01  3.37918800e+00]
 [-1.03061067e-01  3.39588550e+00]
 [-1.03061067e-01  3.41255090e+00]
 [-1.03061067e-01  3.42923470e+00]
 [-1.03061067e-01  3.44637650e+00]
 [-1.03061067e-01  3.46306800e+00]
 [-1.03061067e-01  3.47971000e+00]
 [-1.03061067e-01  3.49639490e+00]
 [-1.03061067e-01  3.51306160e+00]
 [-1.03061067e-01  3.52975790e+00]
 [-1.03061067e-01  3.54640510e+00]
 [-1.03061067e-01  3.56306660e+00]
 [-1.03061067e-01  3.57973060e+00]
 [-1.03061067e-01  3.59640120e+00]
 [-1.03061067e-01  3.61306730e+00]
 [-1.03061067e-01  3.62972670e+00]
 [-1.03061067e-01  3.64641390e+00]
 [-1.03061067e-01  3.66307520e+00]
 [-1.03061067e-01  3.67974270e+00]
 [-1.03061067e-01  3.69640080e+00]
 [-1.03061067e-01  3.71305550e+00]
 [-1.03061067e-01  3.72973180e+00]
 [-1.03061067e-01  3.74638960e+00]
 [-1.03061067e-01  3.76307420e+00]
 [-1.03061067e-01  3.77974020e+00]
 [-1.03061067e-01  3.79640480e+00]
 [-1.03061067e-01  3.81306890e+00]
 [-1.03061067e-01  3.82974090e+00]
 [-1.03061067e-01  3.84640640e+00]
 [-1.03061067e-01  3.86307120e+00]
 [-1.03061067e-01  3.87975140e+00]
 [-1.03061067e-01  3.89640750e+00]
 [-1.03061067e-01  3.91307060e+00]
 [-1.03061067e-01  3.92973220e+00]
 [-1.03061067e-01  3.94640270e+00]
 [-1.03061067e-01  3.96313540e+00]
 [-1.03061067e-01  3.97976750e+00]
 [-1.03061067e-01  3.99641000e+00]
 [-1.03061067e-01  4.01307060e+00]
 [-1.03061067e-01  4.02973590e+00]
 [-1.03061067e-01  4.04640290e+00]
 [-1.03061067e-01  4.06307450e+00]
 [-1.03061067e-01  4.07971470e+00]
 [-1.03061067e-01  4.09641630e+00]
 [-1.03061067e-01  4.11304720e+00]
 [-1.03061067e-01  4.12973420e+00]
 [-1.03061067e-01  4.14641220e+00]
 [-1.03061067e-01  4.16307060e+00]
 [-1.03061067e-01  4.17975000e+00]
 [-1.03061067e-01  4.19641890e+00]
 [-1.03061067e-01  4.21307500e+00]
 [-1.03061067e-01  4.22971970e+00]
 [-1.03061067e-01  4.24637960e+00]
 [-1.03061067e-01  4.26306610e+00]
 [-1.03061067e-01  4.27971210e+00]
 [-1.03061067e-01  4.29637250e+00]
 [-1.03061067e-01  4.31304900e+00]
 [-1.03061067e-01  4.32972320e+00]
 [-1.03061067e-01  4.34639250e+00]
 [-1.03061067e-01  4.36307960e+00]
 [-1.03061067e-01  4.37973430e+00]
 [-1.03061067e-01  4.39589220e+00]
 [-1.10422572e-01  4.41252140e+00]
 [-1.10422572e-01  4.42919920e+00]
 [-1.10422572e-01  4.44575230e+00]
 [-1.10422572e-01  4.46249290e+00]
 [-1.10422572e-01  4.47919590e+00]
 [-1.10422572e-01  4.49589280e+00]
 [-1.10422572e-01  4.51240830e+00]
 [-1.10422572e-01  4.52920380e+00]
 [-1.10422572e-01  4.54583130e+00]
 [-1.10422572e-01  4.56252910e+00]
 [-1.10422572e-01  4.57915570e+00]
 [-1.10422572e-01  4.59584240e+00]
 [-1.10422572e-01  4.61249490e+00]
 [-1.10422572e-01  4.62923380e+00]
 [-1.10422572e-01  4.64582580e+00]
 [-1.10422572e-01  4.66249580e+00]
 [-1.10422572e-01  4.67921390e+00]
 [-1.10422572e-01  4.69590670e+00]
 [-1.10422572e-01  4.71250030e+00]
 [-1.10422572e-01  4.72923940e+00]
 [-1.10422572e-01  4.74586640e+00]
 [-1.10422572e-01  4.76249440e+00]
 [-1.10422572e-01  4.77921990e+00]
 [-1.10422572e-01  4.79587440e+00]
 [-1.10422572e-01  4.81251150e+00]
 [-1.10422572e-01  4.82924120e+00]
 [-1.10422572e-01  4.84590330e+00]
 [-1.10422572e-01  4.86249540e+00]
 [-1.10422572e-01  4.87920800e+00]
 [-1.10422572e-01  4.89590720e+00]
 [-1.10422572e-01  4.91256900e+00]
 [-1.10422572e-01  4.92924380e+00]
 [-1.10422572e-01  4.94582770e+00]
 [-1.10422572e-01  4.96254060e+00]
 [-1.10422572e-01  4.97913420e+00]
 [-1.10422572e-01  4.99587190e+00]
 [-1.10422572e-01  5.01251980e+00]
 [-1.10422572e-01  5.02929390e+00]
 [-1.10422572e-01  5.04588050e+00]
 [-1.10422572e-01  5.06254160e+00]
 [-1.10422572e-01  5.07920870e+00]
 [-1.10422572e-01  5.09592050e+00]
 [-1.10422572e-01  5.11252900e+00]
 [-1.10422572e-01  5.12924150e+00]
 [-1.10422572e-01  5.14583040e+00]
 [-1.10422572e-01  5.16249430e+00]
 [-1.10422572e-01  5.17924740e+00]
 [-1.10422572e-01  5.19582930e+00]
 [-1.10422572e-01  5.21253140e+00]
 [-1.10422572e-01  5.22920740e+00]
 [-1.10422572e-01  5.24590690e+00]
 [-1.10422572e-01  5.26254220e+00]
 [-1.10422572e-01  5.27917120e+00]
 [-1.10422572e-01  5.29590440e+00]
 [-1.10422572e-01  5.31258260e+00]
 [-1.10422572e-01  5.32924280e+00]
 [-1.10422572e-01  5.34583860e+00]
 [-1.10422572e-01  5.36255490e+00]
 [-1.10422572e-01  5.37916490e+00]
 [-1.10422572e-01  5.39591120e+00]
 [-1.10422572e-01  5.41262360e+00]
 [-1.10422572e-01  5.42921300e+00]
 [-1.10422572e-01  5.44583100e+00]
 [-1.10422572e-01  5.46251070e+00]
 [-1.10422572e-01  5.47916130e+00]
 [-1.10422572e-01  5.49584220e+00]
 [-1.10422572e-01  5.51249750e+00]
 [-1.10422572e-01  5.52918880e+00]
 [-1.10422572e-01  5.54583950e+00]
 [-1.10422572e-01  5.56251000e+00]
 [-1.10422572e-01  5.57921880e+00]
 [-1.10422572e-01  5.59583450e+00]
 [-1.10422572e-01  5.61257290e+00]
 [-1.10422572e-01  5.62925530e+00]
 [-1.10422572e-01  5.64595540e+00]
 [-1.10422572e-01  5.66250920e+00]
 [-1.10422572e-01  5.67932650e+00]
 [-1.10422572e-01  5.69586320e+00]
 [-1.10422572e-01  5.71258430e+00]
 [-1.10422572e-01  5.72923560e+00]
 [-1.10422572e-01  5.74588540e+00]
 [-1.10422572e-01  5.76258500e+00]
 [-1.10422572e-01  5.77923190e+00]
 [-1.10422572e-01  5.79589130e+00]
 [-1.10422572e-01  5.81254630e+00]
 [-1.10422572e-01  5.82922090e+00]
 [-1.10422572e-01  5.84588290e+00]
 [-1.10422572e-01  5.86255770e+00]
 [-1.10422572e-01  5.87920990e+00]
 [-1.10422572e-01  5.89594460e+00]
 [-1.10422572e-01  5.91256130e+00]
 [-1.10422572e-01  5.92921650e+00]
 [-1.10422572e-01  5.94583890e+00]
 [-1.10422572e-01  5.96250990e+00]
 [-1.10422572e-01  5.97922170e+00]
 [-1.10422572e-01  5.99592820e+00]
 [-1.10422572e-01  6.01255070e+00]
 [-1.10422572e-01  6.02926150e+00]]","[[1.40000000e+02 7.29993917e-06]
 [1.40000000e+02 1.29340000e-02]
 [1.40000000e+02 2.96777000e-02]
 [1.40000000e+02 4.63485999e-02]
 [1.40000000e+02 6.29906000e-02]
 [1.40000000e+02 7.96503000e-02]
 [1.40000000e+02 9.63446000e-02]
 [1.40000000e+02 1.12992000e-01]
 [1.40000000e+02 1.29655900e-01]
 [1.40000000e+02 1.46321700e-01]
 [1.40000000e+02 1.63015900e-01]
 [1.40000000e+02 1.79649200e-01]
 [1.40000000e+02 1.96323200e-01]
 [1.40000000e+02 2.12986100e-01]
 [1.40000000e+02 2.29650100e-01]
 [1.40000000e+02 2.46331500e-01]
 [1.40000000e+02 2.63014400e-01]
 [1.40000000e+02 2.79152500e-01]
 [1.40000000e+02 2.95756800e-01]
 [1.40000000e+02 3.12541400e-01]
 [1.40000000e+02 3.29172100e-01]
 [1.40000000e+02 3.45638800e-01]
 [1.40000000e+02 3.62467800e-01]
 [1.40000000e+02 3.79149200e-01]
 [1.40000000e+02 3.95760500e-01]
 [1.40000000e+02 4.12434700e-01]
 [1.40000000e+02 4.29021900e-01]
 [1.40000000e+02 4.45687300e-01]
 [1.40000000e+02 4.62436900e-01]
 [1.40000000e+02 4.79100200e-01]
 [1.40000000e+02 4.95762300e-01]
 [1.40000000e+02 5.12446300e-01]
 [1.40000000e+02 5.28972600e-01]
 [1.40000000e+02 5.45886600e-01]
 [1.40000000e+02 5.62356800e-01]
 [1.40000000e+02 5.79147900e-01]
 [1.40000000e+02 5.95764000e-01]
 [1.40000000e+02 6.12463200e-01]
 [1.40000000e+02 6.28981300e-01]
 [1.40000000e+02 6.45820500e-01]
 [1.40000000e+02 6.62471600e-01]
 [1.40000000e+02 6.79161200e-01]
 [1.40000000e+02 6.95681000e-01]
 [1.40000000e+02 7.12441100e-01]
 [1.40000000e+02 7.29025400e-01]
 [1.40000000e+02 7.45847500e-01]
 [1.40000000e+02 7.62441300e-01]
 [1.40000000e+02 7.79099600e-01]
 [1.40000000e+02 7.95864100e-01]
 [1.40000000e+02 8.12456600e-01]
 [1.40000000e+02 8.29189500e-01]
 [1.40000000e+02 8.45692800e-01]
 [1.40000000e+02 8.62479200e-01]
 [1.40000000e+02 8.79107700e-01]
 [1.40000000e+02 8.95686500e-01]
 [1.40000000e+02 9.12478900e-01]
 [1.40000000e+02 9.29033800e-01]
 [1.40000000e+02 9.45822300e-01]
 [1.40000000e+02 9.62471300e-01]
 [1.40000000e+02 9.79117600e-01]
 [1.40000000e+02 9.95768600e-01]
 [1.40000000e+02 1.01236690e+00]
 [1.45079438e+02 1.02902630e+00]
 [1.45079438e+02 1.04636060e+00]
 [1.53545169e+02 1.06294810e+00]
 [1.60317753e+02 1.07970390e+00]
 [1.67090338e+02 1.09634970e+00]
 [1.69630057e+02 1.11301620e+00]
 [1.69630057e+02 1.12968410e+00]
 [1.69630057e+02 1.14629110e+00]
 [1.73862922e+02 1.16302280e+00]
 [1.73862922e+02 1.17968200e+00]
 [1.78942360e+02 1.19635770e+00]
 [1.81482079e+02 1.21303290e+00]
 [1.83175225e+02 1.22968950e+00]
 [1.85714945e+02 1.24634880e+00]
 [1.91640956e+02 1.26295470e+00]
 [1.95027248e+02 1.27970760e+00]
 [1.95027248e+02 1.29635330e+00]
 [2.01799833e+02 1.31301260e+00]
 [2.01799833e+02 1.32967810e+00]
 [2.05186125e+02 1.34635510e+00]
 [2.06879271e+02 1.36301830e+00]
 [2.06879271e+02 1.37969110e+00]
 [2.06879271e+02 1.39635660e+00]
 [2.07725844e+02 1.41304080e+00]
 [2.10265563e+02 1.42969880e+00]
 [2.10265563e+02 1.44635900e+00]
 [2.17884720e+02 1.46302110e+00]
 [2.20424440e+02 1.47970700e+00]
 [2.27197024e+02 1.49635590e+00]
 [2.27197024e+02 1.51292640e+00]
 [2.33969608e+02 1.52969320e+00]
 [2.39049047e+02 1.54629490e+00]
 [2.40742193e+02 1.56302040e+00]
 [2.42435339e+02 1.57963760e+00]
 [2.44128485e+02 1.59637200e+00]
 [2.46668204e+02 1.61297370e+00]
 [2.49207923e+02 1.62969680e+00]
 [2.51747642e+02 1.64637410e+00]
 [2.52594215e+02 1.66296720e+00]
 [2.52594215e+02 1.67969640e+00]
 [2.53440789e+02 1.69630180e+00]
 [2.55000000e+02 1.71303320e+00]
 [2.55000000e+02 1.72959640e+00]
 [2.55000000e+02 1.74636890e+00]
 [2.55000000e+02 1.76293520e+00]
 [2.55000000e+02 1.77968890e+00]
 [2.55000000e+02 1.79629240e+00]
 [2.55000000e+02 1.81301900e+00]
 [2.55000000e+02 1.82960560e+00]
 [2.55000000e+02 1.84635700e+00]
 [2.55000000e+02 1.86297460e+00]
 [2.55000000e+02 1.87968140e+00]
 [2.55000000e+02 1.89628060e+00]
 [2.55000000e+02 1.91301580e+00]
 [2.55000000e+02 1.92964750e+00]
 [2.55000000e+02 1.94635710e+00]
 [2.55000000e+02 1.96295560e+00]
 [2.55000000e+02 1.97968420e+00]
 [2.55000000e+02 1.99579380e+00]
 [2.55000000e+02 2.01251140e+00]
 [2.55000000e+02 2.02904760e+00]
 [2.31429889e+02 2.04569720e+00]
 [2.31429889e+02 2.06303480e+00]
 [1.82328652e+02 2.07964240e+00]
 [1.82328652e+02 2.09637890e+00]
 [1.63704045e+02 2.11298550e+00]
 [1.50158877e+02 2.12970200e+00]
 [1.44232865e+02 2.14631190e+00]
 [1.41693146e+02 2.16304110e+00]
 [1.41693146e+02 2.17962750e+00]
 [1.41693146e+02 2.19635940e+00]
 [1.41693146e+02 2.21295370e+00]
 [1.36613708e+02 2.22971310e+00]
 [1.33227416e+02 2.24635760e+00]
 [1.25608258e+02 2.26296510e+00]
 [1.25608258e+02 2.27969670e+00]
 [1.23915112e+02 2.29636700e+00]
 [1.18835674e+02 2.31302130e+00]
 [1.16295955e+02 2.32971120e+00]
 [1.16295955e+02 2.34636620e+00]
 [1.09523370e+02 2.36304470e+00]
 [1.08676797e+02 2.37969600e+00]
 [1.05290505e+02 2.39637540e+00]
 [1.04443932e+02 2.41303190e+00]
 [1.01904213e+02 2.42969610e+00]
 [1.00211067e+02 2.44636640e+00]
 [9.85179206e+01 2.46304290e+00]
 [9.68247745e+01 2.47971050e+00]
 [9.51316284e+01 2.49631680e+00]
 [8.92056171e+01 2.51304130e+00]
 [8.92056171e+01 2.52969870e+00]
 [8.58193249e+01 2.54637810e+00]
 [8.24330327e+01 2.56303830e+00]
 [8.07398866e+01 2.57971510e+00]
 [7.98933135e+01 2.59638190e+00]
 [7.31207291e+01 2.61304420e+00]
 [7.31207291e+01 2.62970880e+00]
 [6.46549987e+01 2.64637180e+00]
 [6.29618526e+01 2.66306210e+00]
 [5.53426951e+01 2.67970040e+00]
 [5.53426951e+01 2.69629590e+00]
 [4.51838185e+01 2.71303690e+00]
 [4.51838185e+01 2.72961240e+00]
 [4.17975263e+01 2.74637950e+00]
 [3.92578072e+01 2.76305460e+00]
 [3.58715150e+01 2.77969710e+00]
 [3.58715150e+01 2.79637790e+00]
 [3.58715150e+01 2.81304740e+00]
 [3.24852228e+01 2.82969520e+00]
 [2.99455037e+01 2.84635890e+00]
 [2.82523576e+01 2.86304870e+00]
 [2.57126384e+01 2.87965030e+00]
 [2.50000000e+01 2.89637780e+00]
 [2.50000000e+01 2.91297590e+00]
 [2.50000000e+01 2.92973220e+00]
 [2.50000000e+01 2.94629810e+00]
 [2.50000000e+01 2.96303520e+00]
 [2.50000000e+01 2.97970160e+00]
 [2.50000000e+01 2.99630840e+00]
 [2.50000000e+01 3.01303120e+00]
 [2.50000000e+01 3.02964210e+00]
 [2.50000000e+01 3.04636420e+00]
 [2.50000000e+01 3.06303660e+00]
 [2.50000000e+01 3.07973160e+00]
 [2.50000000e+01 3.09636980e+00]
 [2.50000000e+01 3.11296940e+00]
 [2.50000000e+01 3.12969990e+00]
 [2.50000000e+01 3.14630230e+00]
 [2.50000000e+01 3.16303690e+00]
 [2.50000000e+01 3.17918000e+00]
 [2.50000000e+01 3.19584500e+00]
 [2.50000000e+01 3.21253880e+00]
 [2.50000000e+01 3.22921060e+00]
 [2.50000000e+01 3.24573430e+00]
 [2.50000000e+01 3.26251240e+00]
 [2.50000000e+01 3.27925460e+00]
 [2.50000000e+01 3.29587070e+00]
 [2.50000000e+01 3.31241670e+00]
 [2.50000000e+01 3.32923840e+00]
 [2.50000000e+01 3.34574050e+00]
 [2.50000000e+01 3.36254120e+00]
 [2.50000000e+01 3.37918800e+00]
 [2.50000000e+01 3.39588550e+00]
 [2.50000000e+01 3.41255090e+00]
 [3.58715150e+01 3.42923470e+00]
 [3.58715150e+01 3.44637650e+00]
 [4.09509533e+01 3.46306800e+00]
 [4.26440994e+01 3.47971000e+00]
 [5.02632568e+01 3.49639490e+00]
 [5.36495490e+01 3.51306160e+00]
 [5.53426951e+01 3.52975790e+00]
 [6.04221334e+01 3.54640510e+00]
 [6.38084256e+01 3.56306660e+00]
 [6.38084256e+01 3.57973060e+00]
 [6.97344370e+01 3.59640120e+00]
 [6.97344370e+01 3.61306730e+00]
 [7.39673022e+01 3.62972670e+00]
 [7.73535944e+01 3.64641390e+00]
 [8.32796057e+01 3.66307520e+00]
 [8.32796057e+01 3.67974270e+00]
 [8.41261788e+01 3.69640080e+00]
 [8.41261788e+01 3.71305550e+00]
 [8.58193249e+01 3.72973180e+00]
 [8.75124710e+01 3.74638960e+00]
 [9.59782015e+01 3.76307420e+00]
 [9.68247745e+01 3.77974020e+00]
 [1.00211067e+02 3.79640480e+00]
 [1.01904213e+02 3.81306890e+00]
 [1.06137078e+02 3.82974090e+00]
 [1.11216516e+02 3.84640640e+00]
 [1.15449382e+02 3.86307120e+00]
 [1.15449382e+02 3.87975140e+00]
 [1.18835674e+02 3.89640750e+00]
 [1.22221966e+02 3.91307060e+00]
 [1.23915112e+02 3.92973220e+00]
 [1.25608258e+02 3.94640270e+00]
 [1.28147977e+02 3.96313540e+00]
 [1.28147977e+02 3.97976750e+00]
 [1.30687696e+02 3.99641000e+00]
 [1.30687696e+02 4.01307060e+00]
 [1.30687696e+02 4.02973590e+00]
 [1.31534270e+02 4.04640290e+00]
 [1.34073989e+02 4.06307450e+00]
 [1.34073989e+02 4.07971470e+00]
 [1.34920562e+02 4.09641630e+00]
 [1.38306854e+02 4.11304720e+00]
 [1.40846573e+02 4.12973420e+00]
 [1.40846573e+02 4.14641220e+00]
 [1.40846573e+02 4.16307060e+00]
 [1.41693146e+02 4.17975000e+00]
 [1.41693146e+02 4.19641890e+00]
 [1.41693146e+02 4.21307500e+00]
 [1.41693146e+02 4.22971970e+00]
 [1.41693146e+02 4.24637960e+00]
 [1.41693146e+02 4.26306610e+00]
 [1.41693146e+02 4.27971210e+00]
 [1.41693146e+02 4.29637250e+00]
 [1.41693146e+02 4.31304900e+00]
 [1.41693146e+02 4.32972320e+00]
 [1.41693146e+02 4.34639250e+00]
 [1.41693146e+02 4.36307960e+00]
 [1.41693146e+02 4.37973430e+00]
 [1.41693146e+02 4.39589220e+00]
 [1.41693146e+02 4.41252140e+00]
 [1.41693146e+02 4.42919920e+00]
 [1.41693146e+02 4.44575230e+00]
 [1.41693146e+02 4.46249290e+00]
 [1.41693146e+02 4.47919590e+00]
 [1.41693146e+02 4.49589280e+00]
 [1.41693146e+02 4.51240830e+00]
 [1.41693146e+02 4.52920380e+00]
 [1.41693146e+02 4.54583130e+00]
 [1.41693146e+02 4.56252910e+00]
 [1.41693146e+02 4.57915570e+00]
 [1.41693146e+02 4.59584240e+00]
 [1.41693146e+02 4.61249490e+00]
 [1.41693146e+02 4.62923380e+00]
 [1.41693146e+02 4.64582580e+00]
 [1.41693146e+02 4.66249580e+00]
 [1.41693146e+02 4.67921390e+00]
 [1.41693146e+02 4.69590670e+00]
 [1.41693146e+02 4.71250030e+00]
 [1.41693146e+02 4.72923940e+00]
 [1.41693146e+02 4.74586640e+00]
 [1.41693146e+02 4.76249440e+00]
 [1.41693146e+02 4.77921990e+00]
 [1.41693146e+02 4.79587440e+00]
 [1.41693146e+02 4.81251150e+00]
 [1.41693146e+02 4.82924120e+00]
 [1.41693146e+02 4.84590330e+00]
 [1.41693146e+02 4.86249540e+00]
 [1.41693146e+02 4.87920800e+00]
 [1.41693146e+02 4.89590720e+00]
 [1.41693146e+02 4.91256900e+00]
 [1.41693146e+02 4.92924380e+00]
 [1.41693146e+02 4.94582770e+00]
 [1.41693146e+02 4.96254060e+00]
 [1.41693146e+02 4.97913420e+00]
 [1.41693146e+02 4.99587190e+00]
 [1.41693146e+02 5.01251980e+00]
 [1.41693146e+02 5.02929390e+00]
 [1.41693146e+02 5.04588050e+00]
 [1.41693146e+02 5.06254160e+00]
 [1.41693146e+02 5.07920870e+00]
 [1.41693146e+02 5.09592050e+00]
 [1.41693146e+02 5.11252900e+00]
 [1.41693146e+02 5.12924150e+00]
 [1.41693146e+02 5.14583040e+00]
 [1.41693146e+02 5.16249430e+00]
 [1.41693146e+02 5.17924740e+00]
 [1.41693146e+02 5.19582930e+00]
 [1.41693146e+02 5.21253140e+00]
 [1.41693146e+02 5.22920740e+00]
 [1.41693146e+02 5.24590690e+00]
 [1.41693146e+02 5.26254220e+00]
 [1.41693146e+02 5.27917120e+00]
 [1.41693146e+02 5.29590440e+00]
 [1.41693146e+02 5.31258260e+00]
 [1.41693146e+02 5.32924280e+00]
 [1.41693146e+02 5.34583860e+00]
 [1.41693146e+02 5.36255490e+00]
 [1.41693146e+02 5.37916490e+00]
 [1.41693146e+02 5.39591120e+00]
 [1.41693146e+02 5.41262360e+00]
 [1.41693146e+02 5.42921300e+00]
 [1.41693146e+02 5.44583100e+00]
 [1.41693146e+02 5.46251070e+00]
 [1.41693146e+02 5.47916130e+00]
 [1.41693146e+02 5.49584220e+00]
 [1.41693146e+02 5.51249750e+00]
 [1.41693146e+02 5.52918880e+00]
 [1.41693146e+02 5.54583950e+00]
 [1.41693146e+02 5.56251000e+00]
 [1.41693146e+02 5.57921880e+00]
 [1.41693146e+02 5.59583450e+00]
 [1.41693146e+02 5.61257290e+00]
 [1.41693146e+02 5.62925530e+00]
 [1.41693146e+02 5.64595540e+00]
 [1.41693146e+02 5.66250920e+00]
 [1.41693146e+02 5.67932650e+00]
 [1.41693146e+02 5.69586320e+00]
 [1.41693146e+02 5.71258430e+00]
 [1.41693146e+02 5.72923560e+00]
 [1.41693146e+02 5.74588540e+00]
 [1.41693146e+02 5.76258500e+00]
 [1.41693146e+02 5.77923190e+00]
 [1.41693146e+02 5.79589130e+00]
 [1.41693146e+02 5.81254630e+00]
 [1.41693146e+02 5.82922090e+00]
 [1.41693146e+02 5.84588290e+00]
 [1.41693146e+02 5.86255770e+00]
 [1.41693146e+02 5.87920990e+00]
 [1.41693146e+02 5.89594460e+00]
 [1.41693146e+02 5.91256130e+00]
 [1.41693146e+02 5.92921650e+00]
 [1.41693146e+02 5.94583890e+00]
 [1.41693146e+02 5.96250990e+00]
 [1.41693146e+02 5.97922170e+00]
 [1.41693146e+02 5.99592820e+00]
 [1.41693146e+02 6.01255070e+00]
 [1.41693146e+02 6.02926150e+00]]","[[ 0.00000000e+00  7.29993917e-06]
 [ 0.00000000e+00  1.29340000e-02]
 [ 0.00000000e+00  2.96777000e-02]
 [ 0.00000000e+00  4.63485999e-02]
 [ 0.00000000e+00  6.29906000e-02]
 [ 0.00000000e+00  7.96503000e-02]
 [ 0.00000000e+00  9.63446000e-02]
 [ 0.00000000e+00  1.12992000e-01]
 [ 0.00000000e+00  1.29655900e-01]
 [ 0.00000000e+00  1.46321700e-01]
 [ 0.00000000e+00  1.63015900e-01]
 [ 0.00000000e+00  1.79649200e-01]
 [ 0.00000000e+00  1.96323200e-01]
 [ 0.00000000e+00  2.12986100e-01]
 [ 0.00000000e+00  2.29650100e-01]
 [ 0.00000000e+00  2.46331500e-01]
 [ 0.00000000e+00  2.63014400e-01]
 [ 0.00000000e+00  2.79152500e-01]
 [ 0.00000000e+00  2.95756800e-01]
 [ 0.00000000e+00  3.12541400e-01]
 [ 0.00000000e+00  3.29172100e-01]
 [ 0.00000000e+00  3.45638800e-01]
 [ 0.00000000e+00  3.62467800e-01]
 [ 0.00000000e+00  3.79149200e-01]
 [ 0.00000000e+00  3.95760500e-01]
 [ 0.00000000e+00  4.12434700e-01]
 [ 0.00000000e+00  4.29021900e-01]
 [ 0.00000000e+00  4.45687300e-01]
 [ 0.00000000e+00  4.62436900e-01]
 [ 0.00000000e+00  4.79100200e-01]
 [ 0.00000000e+00  4.95762300e-01]
 [ 0.00000000e+00  5.12446300e-01]
 [ 0.00000000e+00  5.28972600e-01]
 [ 0.00000000e+00  5.45886600e-01]
 [ 0.00000000e+00  5.62356800e-01]
 [ 0.00000000e+00  5.79147900e-01]
 [ 0.00000000e+00  5.95764000e-01]
 [ 0.00000000e+00  6.12463200e-01]
 [ 0.00000000e+00  6.28981300e-01]
 [ 0.00000000e+00  6.45820500e-01]
 [ 0.00000000e+00  6.62471600e-01]
 [ 0.00000000e+00  6.79161200e-01]
 [ 0.00000000e+00  6.95681000e-01]
 [ 0.00000000e+00  7.12441100e-01]
 [ 0.00000000e+00  7.29025400e-01]
 [ 0.00000000e+00  7.45847500e-01]
 [ 0.00000000e+00  7.62441300e-01]
 [ 0.00000000e+00  7.79099600e-01]
 [ 0.00000000e+00  7.95864100e-01]
 [ 0.00000000e+00  8.12456600e-01]
 [ 0.00000000e+00  8.29189500e-01]
 [ 0.00000000e+00  8.45692800e-01]
 [ 0.00000000e+00  8.62479200e-01]
 [ 0.00000000e+00  8.79107700e-01]
 [ 0.00000000e+00  8.95686500e-01]
 [ 0.00000000e+00  9.12478900e-01]
 [ 0.00000000e+00  9.29033800e-01]
 [ 0.00000000e+00  9.45822300e-01]
 [ 0.00000000e+00  9.62471300e-01]
 [ 0.00000000e+00  9.79117600e-01]
 [ 0.00000000e+00  9.95768600e-01]
 [ 0.00000000e+00  1.01236690e+00]
 [ 4.41690286e-02  1.02902630e+00]
 [ 4.41690286e-02  1.04636060e+00]
 [ 1.17784076e-01  1.06294810e+00]
 [ 1.76676115e-01  1.07970390e+00]
 [ 2.35568153e-01  1.09634970e+00]
 [ 2.57652667e-01  1.11301620e+00]
 [ 2.57652667e-01  1.12968410e+00]
 [ 2.57652667e-01  1.14629110e+00]
 [ 2.94460191e-01  1.16302280e+00]
 [ 2.94460191e-01  1.17968200e+00]
 [ 3.38629219e-01  1.19635770e+00]
 [ 3.60713734e-01  1.21303290e+00]
 [ 3.75436743e-01  1.22968950e+00]
 [ 3.97521258e-01  1.24634880e+00]
 [ 4.49051791e-01  1.26295470e+00]
 [ 4.78497810e-01  1.27970760e+00]
 [ 4.78497810e-01  1.29635330e+00]
 [ 5.37389848e-01  1.31301260e+00]
 [ 5.37389848e-01  1.32967810e+00]
 [ 5.66835867e-01  1.34635510e+00]
 [ 5.81558877e-01  1.36301830e+00]
 [ 5.81558877e-01  1.37969110e+00]
 [ 5.81558877e-01  1.39635660e+00]
 [ 5.88920382e-01  1.41304080e+00]
 [ 6.11004896e-01  1.42969880e+00]
 [ 6.11004896e-01  1.44635900e+00]
 [ 6.77258439e-01  1.46302110e+00]
 [ 6.99342953e-01  1.47970700e+00]
 [ 7.58234991e-01  1.49635590e+00]
 [ 7.58234991e-01  1.51292640e+00]
 [ 8.17127030e-01  1.52969320e+00]
 [ 8.61296058e-01  1.54629490e+00]
 [ 8.76019068e-01  1.56302040e+00]
 [ 8.90742077e-01  1.57963760e+00]
 [ 9.05465087e-01  1.59637200e+00]
 [ 9.27549601e-01  1.61297370e+00]
 [ 9.49634116e-01  1.62969680e+00]
 [ 9.71718630e-01  1.64637410e+00]
 [ 9.79080135e-01  1.66296720e+00]
 [ 9.79080135e-01  1.67969640e+00]
 [ 9.86441639e-01  1.69630180e+00]
 [ 1.00000000e+00  1.71303320e+00]
 [ 1.00000000e+00  1.72959640e+00]
 [ 1.00000000e+00  1.74636890e+00]
 [ 1.00000000e+00  1.76293520e+00]
 [ 1.00000000e+00  1.77968890e+00]
 [ 1.00000000e+00  1.79629240e+00]
 [ 1.00000000e+00  1.81301900e+00]
 [ 1.00000000e+00  1.82960560e+00]
 [ 1.00000000e+00  1.84635700e+00]
 [ 1.00000000e+00  1.86297460e+00]
 [ 1.00000000e+00  1.87968140e+00]
 [ 1.00000000e+00  1.89628060e+00]
 [ 1.00000000e+00  1.91301580e+00]
 [ 1.00000000e+00  1.92964750e+00]
 [ 1.00000000e+00  1.94635710e+00]
 [ 1.00000000e+00  1.96295560e+00]
 [ 1.00000000e+00  1.97968420e+00]
 [ 1.00000000e+00  1.99579380e+00]
 [ 1.00000000e+00  2.01251140e+00]
 [ 1.00000000e+00  2.02904760e+00]
 [ 7.95042515e-01  2.04569720e+00]
 [ 7.95042515e-01  2.06303480e+00]
 [ 3.68075239e-01  2.07964240e+00]
 [ 3.68075239e-01  2.09637890e+00]
 [ 2.06122134e-01  2.11298550e+00]
 [ 8.83380573e-02  2.12970200e+00]
 [ 3.68075239e-02  2.14631190e+00]
 [ 1.47230095e-02  2.16304110e+00]
 [ 1.47230095e-02  2.17962750e+00]
 [ 1.47230095e-02  2.19635940e+00]
 [ 1.47230095e-02  2.21295370e+00]
 [-2.94460191e-02  2.22971310e+00]
 [-5.88920382e-02  2.24635760e+00]
 [-1.25145581e-01  2.26296510e+00]
 [-1.25145581e-01  2.27969670e+00]
 [-1.39868591e-01  2.29636700e+00]
 [-1.84037619e-01  2.31302130e+00]
 [-2.06122134e-01  2.32971120e+00]
 [-2.06122134e-01  2.34636620e+00]
 [-2.65014172e-01  2.36304470e+00]
 [-2.72375677e-01  2.37969600e+00]
 [-3.01821696e-01  2.39637540e+00]
 [-3.09183200e-01  2.41303190e+00]
 [-3.31267715e-01  2.42969610e+00]
 [-3.45990724e-01  2.44636640e+00]
 [-3.60713734e-01  2.46304290e+00]
 [-3.75436743e-01  2.47971050e+00]
 [-3.90159753e-01  2.49631680e+00]
 [-4.41690286e-01  2.51304130e+00]
 [-4.41690286e-01  2.52969870e+00]
 [-4.71136305e-01  2.54637810e+00]
 [-5.00582324e-01  2.56303830e+00]
 [-5.15305334e-01  2.57971510e+00]
 [-5.22666839e-01  2.59638190e+00]
 [-5.81558877e-01  2.61304420e+00]
 [-5.81558877e-01  2.62970880e+00]
 [-6.55173925e-01  2.64637180e+00]
 [-6.69896934e-01  2.66306210e+00]
 [-7.36150477e-01  2.67970040e+00]
 [-7.36150477e-01  2.69629590e+00]
 [-8.24488534e-01  2.71303690e+00]
 [-8.24488534e-01  2.72961240e+00]
 [-8.53934554e-01  2.74637950e+00]
 [-8.76019068e-01  2.76305460e+00]
 [-9.05465087e-01  2.77969710e+00]
 [-9.05465087e-01  2.79637790e+00]
 [-9.05465087e-01  2.81304740e+00]
 [-9.34911106e-01  2.82969520e+00]
 [-9.56995620e-01  2.84635890e+00]
 [-9.71718630e-01  2.86304870e+00]
 [-9.93803144e-01  2.87965030e+00]
 [-1.00000000e+00  2.89637780e+00]
 [-1.00000000e+00  2.91297590e+00]
 [-1.00000000e+00  2.92973220e+00]
 [-1.00000000e+00  2.94629810e+00]
 [-1.00000000e+00  2.96303520e+00]
 [-1.00000000e+00  2.97970160e+00]
 [-1.00000000e+00  2.99630840e+00]
 [-1.00000000e+00  3.01303120e+00]
 [-1.00000000e+00  3.02964210e+00]
 [-1.00000000e+00  3.04636420e+00]
 [-1.00000000e+00  3.06303660e+00]
 [-1.00000000e+00  3.07973160e+00]
 [-1.00000000e+00  3.09636980e+00]
 [-1.00000000e+00  3.11296940e+00]
 [-1.00000000e+00  3.12969990e+00]
 [-1.00000000e+00  3.14630230e+00]
 [-1.00000000e+00  3.16303690e+00]
 [-1.00000000e+00  3.17918000e+00]
 [-1.00000000e+00  3.19584500e+00]
 [-1.00000000e+00  3.21253880e+00]
 [-1.00000000e+00  3.22921060e+00]
 [-1.00000000e+00  3.24573430e+00]
 [-1.00000000e+00  3.26251240e+00]
 [-1.00000000e+00  3.27925460e+00]
 [-1.00000000e+00  3.29587070e+00]
 [-1.00000000e+00  3.31241670e+00]
 [-1.00000000e+00  3.32923840e+00]
 [-1.00000000e+00  3.34574050e+00]
 [-1.00000000e+00  3.36254120e+00]
 [-1.00000000e+00  3.37918800e+00]
 [-1.00000000e+00  3.39588550e+00]
 [-1.00000000e+00  3.41255090e+00]
 [-9.05465087e-01  3.42923470e+00]
 [-9.05465087e-01  3.44637650e+00]
 [-8.61296058e-01  3.46306800e+00]
 [-8.46573049e-01  3.47971000e+00]
 [-7.80319506e-01  3.49639490e+00]
 [-7.50873487e-01  3.51306160e+00]
 [-7.36150477e-01  3.52975790e+00]
 [-6.91981449e-01  3.54640510e+00]
 [-6.62535429e-01  3.56306660e+00]
 [-6.62535429e-01  3.57973060e+00]
 [-6.11004896e-01  3.59640120e+00]
 [-6.11004896e-01  3.61306730e+00]
 [-5.74197372e-01  3.62972670e+00]
 [-5.44751353e-01  3.64641390e+00]
 [-4.93220820e-01  3.66307520e+00]
 [-4.93220820e-01  3.67974270e+00]
 [-4.85859315e-01  3.69640080e+00]
 [-4.85859315e-01  3.71305550e+00]
 [-4.71136305e-01  3.72973180e+00]
 [-4.56413296e-01  3.74638960e+00]
 [-3.82798248e-01  3.76307420e+00]
 [-3.75436743e-01  3.77974020e+00]
 [-3.45990724e-01  3.79640480e+00]
 [-3.31267715e-01  3.81306890e+00]
 [-2.94460191e-01  3.82974090e+00]
 [-2.50291162e-01  3.84640640e+00]
 [-2.13483638e-01  3.86307120e+00]
 [-2.13483638e-01  3.87975140e+00]
 [-1.84037619e-01  3.89640750e+00]
 [-1.54591600e-01  3.91307060e+00]
 [-1.39868591e-01  3.92973220e+00]
 [-1.25145581e-01  3.94640270e+00]
 [-1.03061067e-01  3.96313540e+00]
 [-1.03061067e-01  3.97976750e+00]
 [-8.09765525e-02  3.99641000e+00]
 [-8.09765525e-02  4.01307060e+00]
 [-8.09765525e-02  4.02973590e+00]
 [-7.36150477e-02  4.04640290e+00]
 [-5.15305334e-02  4.06307450e+00]
 [-5.15305334e-02  4.07971470e+00]
 [-4.41690286e-02  4.09641630e+00]
 [-1.47230095e-02  4.11304720e+00]
 [ 7.36150477e-03  4.12973420e+00]
 [ 7.36150477e-03  4.14641220e+00]
 [ 7.36150477e-03  4.16307060e+00]
 [ 1.47230095e-02  4.17975000e+00]
 [ 1.47230095e-02  4.19641890e+00]
 [ 1.47230095e-02  4.21307500e+00]
 [ 1.47230095e-02  4.22971970e+00]
 [ 1.47230095e-02  4.24637960e+00]
 [ 1.47230095e-02  4.26306610e+00]
 [ 1.47230095e-02  4.27971210e+00]
 [ 1.47230095e-02  4.29637250e+00]
 [ 1.47230095e-02  4.31304900e+00]
 [ 1.47230095e-02  4.32972320e+00]
 [ 1.47230095e-02  4.34639250e+00]
 [ 1.47230095e-02  4.36307960e+00]
 [ 1.47230095e-02  4.37973430e+00]
 [ 1.47230095e-02  4.39589220e+00]
 [ 1.47230095e-02  4.41252140e+00]
 [ 1.47230095e-02  4.42919920e+00]
 [ 1.47230095e-02  4.44575230e+00]
 [ 1.47230095e-02  4.46249290e+00]
 [ 1.47230095e-02  4.47919590e+00]
 [ 1.47230095e-02  4.49589280e+00]
 [ 1.47230095e-02  4.51240830e+00]
 [ 1.47230095e-02  4.52920380e+00]
 [ 1.47230095e-02  4.54583130e+00]
 [ 1.47230095e-02  4.56252910e+00]
 [ 1.47230095e-02  4.57915570e+00]
 [ 1.47230095e-02  4.59584240e+00]
 [ 1.47230095e-02  4.61249490e+00]
 [ 1.47230095e-02  4.62923380e+00]
 [ 1.47230095e-02  4.64582580e+00]
 [ 1.47230095e-02  4.66249580e+00]
 [ 1.47230095e-02  4.67921390e+00]
 [ 1.47230095e-02  4.69590670e+00]
 [ 1.47230095e-02  4.71250030e+00]
 [ 1.47230095e-02  4.72923940e+00]
 [ 1.47230095e-02  4.74586640e+00]
 [ 1.47230095e-02  4.76249440e+00]
 [ 1.47230095e-02  4.77921990e+00]
 [ 1.47230095e-02  4.79587440e+00]
 [ 1.47230095e-02  4.81251150e+00]
 [ 1.47230095e-02  4.82924120e+00]
 [ 1.47230095e-02  4.84590330e+00]
 [ 1.47230095e-02  4.86249540e+00]
 [ 1.47230095e-02  4.87920800e+00]
 [ 1.47230095e-02  4.89590720e+00]
 [ 1.47230095e-02  4.91256900e+00]
 [ 1.47230095e-02  4.92924380e+00]
 [ 1.47230095e-02  4.94582770e+00]
 [ 1.47230095e-02  4.96254060e+00]
 [ 1.47230095e-02  4.97913420e+00]
 [ 1.47230095e-02  4.99587190e+00]
 [ 1.47230095e-02  5.01251980e+00]
 [ 1.47230095e-02  5.02929390e+00]
 [ 1.47230095e-02  5.04588050e+00]
 [ 1.47230095e-02  5.06254160e+00]
 [ 1.47230095e-02  5.07920870e+00]
 [ 1.47230095e-02  5.09592050e+00]
 [ 1.47230095e-02  5.11252900e+00]
 [ 1.47230095e-02  5.12924150e+00]
 [ 1.47230095e-02  5.14583040e+00]
 [ 1.47230095e-02  5.16249430e+00]
 [ 1.47230095e-02  5.17924740e+00]
 [ 1.47230095e-02  5.19582930e+00]
 [ 1.47230095e-02  5.21253140e+00]
 [ 1.47230095e-02  5.22920740e+00]
 [ 1.47230095e-02  5.24590690e+00]
 [ 1.47230095e-02  5.26254220e+00]
 [ 1.47230095e-02  5.27917120e+00]
 [ 1.47230095e-02  5.29590440e+00]
 [ 1.47230095e-02  5.31258260e+00]
 [ 1.47230095e-02  5.32924280e+00]
 [ 1.47230095e-02  5.34583860e+00]
 [ 1.47230095e-02  5.36255490e+00]
 [ 1.47230095e-02  5.37916490e+00]
 [ 1.47230095e-02  5.39591120e+00]
 [ 1.47230095e-02  5.41262360e+00]
 [ 1.47230095e-02  5.42921300e+00]
 [ 1.47230095e-02  5.44583100e+00]
 [ 1.47230095e-02  5.46251070e+00]
 [ 1.47230095e-02  5.47916130e+00]
 [ 1.47230095e-02  5.49584220e+00]
 [ 1.47230095e-02  5.51249750e+00]
 [ 1.47230095e-02  5.52918880e+00]
 [ 1.47230095e-02  5.54583950e+00]
 [ 1.47230095e-02  5.56251000e+00]
 [ 1.47230095e-02  5.57921880e+00]
 [ 1.47230095e-02  5.59583450e+00]
 [ 1.47230095e-02  5.61257290e+00]
 [ 1.47230095e-02  5.62925530e+00]
 [ 1.47230095e-02  5.64595540e+00]
 [ 1.47230095e-02  5.66250920e+00]
 [ 1.47230095e-02  5.67932650e+00]
 [ 1.47230095e-02  5.69586320e+00]
 [ 1.47230095e-02  5.71258430e+00]
 [ 1.47230095e-02  5.72923560e+00]
 [ 1.47230095e-02  5.74588540e+00]
 [ 1.47230095e-02  5.76258500e+00]
 [ 1.47230095e-02  5.77923190e+00]
 [ 1.47230095e-02  5.79589130e+00]
 [ 1.47230095e-02  5.81254630e+00]
 [ 1.47230095e-02  5.82922090e+00]
 [ 1.47230095e-02  5.84588290e+00]
 [ 1.47230095e-02  5.86255770e+00]
 [ 1.47230095e-02  5.87920990e+00]
 [ 1.47230095e-02  5.89594460e+00]
 [ 1.47230095e-02  5.91256130e+00]
 [ 1.47230095e-02  5.92921650e+00]
 [ 1.47230095e-02  5.94583890e+00]
 [ 1.47230095e-02  5.96250990e+00]
 [ 1.47230095e-02  5.97922170e+00]
 [ 1.47230095e-02  5.99592820e+00]
 [ 1.47230095e-02  6.01255070e+00]
 [ 1.47230095e-02  6.02926150e+00]]",40,A,non_immersive,No,8,2024-05-03_19h05.38.162,Experiment_VR_non_immersive,60.00355222336924,
1,../amsterdam_dynamic_facial_expression_set/F01-Disgust-Face Forward.mp4,arousal,right,HV-LA,direct,0,,,,,0,1,1,0,"[[ 0.          0.007081  ]
 [ 0.          0.0235754 ]
 [ 0.          0.0402305 ]
 [ 0.          0.0572312 ]
 [ 0.          0.0735003 ]
 [ 0.          0.0910771 ]
 [ 0.          0.1068134 ]
 [ 0.          0.1245994 ]
 [ 0.          0.1401927 ]
 [ 0.          0.1577542 ]
 [ 0.          0.1735702 ]
 [ 0.          0.1912265 ]
 [ 0.          0.2067853 ]
 [ 0.          0.2245204 ]
 [ 0.          0.2401507 ]
 [ 0.          0.2579051 ]
 [ 0.          0.2735866 ]
 [ 0.          0.2912649 ]
 [ 0.          0.3069988 ]
 [ 0.          0.3247451 ]
 [ 0.          0.3403092 ]
 [ 0.          0.3579543 ]
 [ 0.          0.3735438 ]
 [ 0.          0.3911522 ]
 [ 0.          0.4068399 ]
 [ 0.          0.4245633 ]
 [ 0.          0.4401052 ]
 [ 0.          0.4576901 ]
 [ 0.          0.4734451 ]
 [ 0.          0.4911214 ]
 [ 0.          0.5068762 ]
 [ 0.          0.5244725 ]
 [ 0.          0.5400481 ]
 [-0.09569956  0.5576147 ]
 [ 0.08097655  0.5733601 ]
 [ 0.25029116  0.590887  ]
 [ 0.31654471  0.6066882 ]
 [ 0.40488276  0.6243074 ]
 [ 0.40488276  0.6400986 ]
 [ 0.40488276  0.6577308 ]
 [ 0.40488276  0.6735088 ]
 [ 0.40488276  0.6909675 ]
 [ 0.40488276  0.7067301 ]
 [ 0.40488276  0.7241954 ]
 [ 0.40488276  0.7399949 ]
 [ 0.40488276  0.7576817 ]
 [ 0.40488276  0.7734423 ]
 [ 0.40488276  0.7909061 ]
 [ 0.40488276  0.8067265 ]
 [ 0.41960577  0.8240841 ]
 [ 0.44169029  0.8400009 ]
 [ 0.47113631  0.8574033 ]
 [ 0.47849781  0.8733939 ]
 [ 0.50794383  0.8907731 ]
 [ 0.53738985  0.9067684 ]
 [ 0.55947436  0.9241753 ]
 [ 0.56683587  0.9399969 ]
 [ 0.59628189  0.9576302 ]
 [ 0.6183664   0.9731643 ]
 [ 0.62572791  0.9911231 ]
 [ 0.64045092  1.0065535 ]
 [ 0.66989693  1.024331  ]
 [ 0.67725844  1.0398714 ]
 [ 0.69934295  1.0577729 ]
 [ 0.70670446  1.0732879 ]
 [ 0.75087349  1.0910206 ]
 [ 0.75087349  1.1067983 ]
 [ 0.84657305  1.1241323 ]
 [ 0.86865756  1.140024  ]
 [ 0.86865756  1.1575596 ]
 [ 0.86865756  1.1732306 ]
 [ 0.89810358  1.1910031 ]
 [ 0.89810358  1.206782  ]
 [ 0.94227261  1.2241519 ]
 [ 0.94227261  1.2400809 ]
 [ 0.97908013  1.2574733 ]
 [ 0.97908013  1.2733597 ]
 [ 0.97908013  1.2909188 ]
 [ 1.          1.3068011 ]
 [ 1.          1.3241804 ]
 [ 1.          1.3400656 ]
 [ 1.          1.3574624 ]
 [ 1.          1.3733475 ]
 [ 1.          1.3909842 ]
 [ 1.          1.4068035 ]
 [ 1.          1.4242454 ]
 [ 1.          1.4399309 ]
 [ 1.          1.4577935 ]
 [ 1.          1.4734401 ]
 [ 1.          1.4909669 ]
 [ 1.          1.5067873 ]
 [ 1.          1.5243389 ]
 [ 1.          1.5400805 ]
 [ 1.          1.557568  ]
 [ 1.          1.5733976 ]
 [ 1.          1.5911163 ]
 [ 1.          1.6066565 ]
 [ 1.          1.6244022 ]
 [ 1.          1.6402435 ]
 [ 1.          1.657641  ]
 [ 0.97908013  1.6735835 ]
 [ 0.90546509  1.6910326 ]
 [ 0.90546509  1.7067029 ]
 [ 0.83921154  1.7241401 ]
 [ 0.83921154  1.7399829 ]
 [ 0.79504252  1.7575154 ]
 [ 0.69934295  1.7733856 ]
 [ 0.62572791  1.790897  ]
 [ 0.58892038  1.8067966 ]
 [ 0.48585931  1.8241448 ]
 [ 0.39752126  1.8400913 ]
 [ 0.34599072  1.8575817 ]
 [ 0.34599072  1.8734707 ]
 [ 0.27973718  1.8908881 ]
 [ 0.16931461  1.9067523 ]
 [ 0.0073615   1.9242195 ]
 [-0.11042257  1.9399402 ]
 [-0.16931461  1.9577492 ]
 [-0.20612213  1.9732455 ]
 [-0.20612213  1.9910448 ]
 [-0.20612213  2.0067702 ]
 [-0.22084514  2.0241441 ]
 [-0.22084514  2.0400952 ]
 [-0.24292966  2.0574972 ]
 [-0.25029116  2.073394  ]
 [-0.25029116  2.0908619 ]
 [-0.27973718  2.1068056 ]
 [-0.29446019  2.1241485 ]
 [-0.3018217   2.139982  ]
 [-0.3091832   2.1574277 ]
 [-0.3091832   2.1735026 ]
 [-0.34599072  2.190771  ]
 [-0.34599072  2.206775  ]
 [-0.39015975  2.2241741 ]
 [-0.41960577  2.2400314 ]
 [-0.49322082  2.2575694 ]
 [-0.59628189  2.2734438 ]
 [-0.65517392  2.2908611 ]
 [-0.66253543  2.3067372 ]
 [-0.66253543  2.3241789 ]
 [-0.71406596  2.3400465 ]
 [-0.7655965   2.3575296 ]
 [-0.78031951  2.3733414 ]
 [-0.82448853  2.3908065 ]
 [-0.86129606  2.4067228 ]
 [-0.9201881   2.4241179 ]
 [-1.          2.4401399 ]
 [-1.          2.4576181 ]
 [-1.          2.473202  ]
 [-1.          2.4909778 ]
 [-1.          2.5067279 ]
 [-1.          2.5246077 ]
 [-1.          2.5401593 ]
 [-1.          2.5578885 ]
 [-1.          2.5736362 ]
 [-1.          2.5912296 ]
 [-1.          2.6068423 ]
 [-1.          2.6244323 ]
 [-1.          2.6402424 ]
 [-1.          2.6579692 ]
 [-1.          2.6735509 ]
 [-1.          2.691137  ]
 [-1.          2.7068129 ]
 [-1.          2.7244303 ]
 [-1.          2.7400766 ]
 [-1.          2.7576096 ]
 [-1.          2.773497  ]
 [-1.          2.790933  ]
 [-1.          2.8067555 ]
 [-1.          2.8244205 ]
 [-1.          2.8401228 ]
 [-1.          2.8577199 ]
 [-1.          2.873469  ]
 [-1.          2.8912257 ]
 [-1.          2.9068235 ]
 [-1.          2.9249295 ]
 [-1.          2.9400267 ]
 [-1.          2.9578744 ]
 [-1.          2.9733303 ]
 [-1.          2.991353  ]
 [-1.          3.006628  ]
 [-1.          3.0246074 ]
 [-1.          3.0399909 ]
 [-1.          3.0579685 ]
 [-1.          3.0735474 ]
 [-1.          3.0913323 ]
 [-1.          3.1067917 ]
 [-1.          3.1245194 ]
 [-1.          3.1400883 ]
 [-1.          3.1577561 ]
 [-1.          3.1734794 ]
 [-1.          3.1912078 ]
 [-1.          3.206757  ]
 [-1.          3.2245155 ]
 [-1.          3.2399406 ]
 [-1.          3.2580425 ]
 [-1.          3.273276  ]
 [-1.          3.291338  ]
 [-0.98644164  3.3067131 ]
 [-0.96435713  3.3245043 ]
 [-0.95699562  3.3399418 ]
 [-0.94227261  3.3577199 ]
 [-0.9201881   3.37323   ]
 [-0.89074208  3.3912614 ]
 [-0.87601907  3.4066562 ]
 [-0.82448853  3.424572  ]
 [-0.78031951  3.4399374 ]
 [-0.772958    3.4578444 ]
 [-0.73615048  3.4732955 ]
 [-0.68461994  3.4912509 ]
 [-0.62572791  3.5065777 ]
 [-0.62572791  3.5243791 ]
 [-0.59628189  3.5399492 ]
 [-0.55211286  3.5578314 ]
 [-0.48585931  3.5733003 ]
 [-0.43432878  3.5910978 ]
 [-0.41224427  3.6066383 ]
 [-0.40488276  3.6245552 ]
 [-0.36071373  3.6399789 ]
 [-0.32390621  3.6577726 ]
 [-0.24292966  3.6733842 ]
 [-0.21348364  3.6915975 ]
 [-0.18403762  3.7067017 ]
 [-0.18403762  3.7244478 ]
 [-0.18403762  3.7401515 ]
 [-0.18403762  3.7577939 ]
 [-0.18403762  3.773416  ]
 [-0.18403762  3.7911647 ]
 [-0.18403762  3.806909  ]
 [-0.18403762  3.824538  ]
 [-0.16931461  3.8399888 ]
 [-0.1619531   3.8577161 ]
 [-0.1545916   3.8732154 ]
 [-0.13250709  3.8911505 ]
 [-0.11042257  3.906697  ]
 [-0.10306107  3.9243909 ]
 [-0.10306107  3.9400217 ]
 [-0.07361505  3.9577115 ]
 [-0.07361505  3.9733803 ]
 [-0.02944602  3.9909261 ]
 [-0.02208451  4.0067473 ]
 [-0.02208451  4.0242138 ]
 [ 0.0073615   4.0401709 ]
 [ 0.0073615   4.0577546 ]
 [ 0.03680752  4.0732553 ]
 [ 0.03680752  4.091193  ]
 [ 0.03680752  4.1066307 ]
 [ 0.05889204  4.1243443 ]
 [ 0.05889204  4.140169  ]
 [ 0.05889204  4.1576892 ]
 [ 0.05889204  4.1733605 ]
 [ 0.05889204  4.190976  ]
 [ 0.05889204  4.2068594 ]
 [ 0.05889204  4.2243405 ]
 [ 0.05889204  4.2401131 ]
 [ 0.05889204  4.2576989 ]
 [ 0.05889204  4.2734005 ]
 [ 0.05889204  4.2912078 ]
 [ 0.05889204  4.3069196 ]
 [ 0.05889204  4.3242859 ]
 [ 0.08097655  4.3400878 ]
 [ 0.08097655  4.3576926 ]
 [ 0.06625354  4.373384  ]
 [ 0.04416903  4.3909147 ]
 [ 0.01472301  4.4067705 ]
 [ 0.01472301  4.4242897 ]
 [-0.02944602  4.4400899 ]
 [-0.04416903  4.4576147 ]
 [-0.04416903  4.4734913 ]
 [-0.05889204  4.4908899 ]
 [-0.07361505  4.5067481 ]
 [-0.07361505  4.5244734 ]
 [-0.07361505  4.5401509 ]
 [-0.07361505  4.557719  ]
 [-0.07361505  4.5733872 ]
 [-0.07361505  4.5911859 ]
 [-0.07361505  4.6068192 ]
 [-0.07361505  4.6243497 ]
 [-0.07361505  4.6401129 ]
 [-0.07361505  4.6578394 ]
 [-0.07361505  4.673423  ]
 [-0.07361505  4.6909955 ]
 [-0.07361505  4.7068734 ]
 [-0.07361505  4.7244407 ]
 [-0.07361505  4.7401903 ]
 [-0.07361505  4.7577575 ]
 [-0.07361505  4.7734141 ]
 [-0.08097655  4.7909557 ]
 [-0.08097655  4.8067338 ]
 [-0.13986859  4.824294  ]
 [-0.19139912  4.8400944 ]
 [-0.24292966  4.8575916 ]
 [-0.24292966  4.8732219 ]
 [-0.26501417  4.8911772 ]
 [-0.26501417  4.906656  ]
 [-0.25029116  4.9244322 ]
 [-0.25029116  4.9401766 ]
 [-0.25029116  4.9577614 ]
 [-0.25029116  4.9733372 ]
 [-0.25029116  4.9909749 ]
 [-0.25029116  5.0067582 ]
 [-0.25029116  5.0243612 ]
 [-0.25029116  5.0401794 ]
 [-0.25029116  5.0577226 ]
 [-0.25029116  5.0734547 ]
 [-0.25029116  5.0910857 ]
 [-0.25029116  5.1067781 ]
 [-0.25029116  5.1243721 ]
 [-0.25029116  5.1402611 ]
 [-0.25029116  5.1578828 ]
 [-0.24292966  5.1733819 ]
 [-0.24292966  5.1911576 ]
 [-0.24292966  5.2067748 ]
 [-0.24292966  5.2245008 ]
 [-0.24292966  5.2402238 ]
 [-0.24292966  5.2578883 ]
 [-0.24292966  5.2735556 ]
 [-0.24292966  5.2911524 ]
 [-0.24292966  5.3067791 ]
 [-0.24292966  5.3245001 ]
 [-0.24292966  5.3401709 ]
 [-0.24292966  5.3579253 ]
 [-0.24292966  5.3734375 ]
 [-0.24292966  5.3910257 ]
 [-0.24292966  5.4067235 ]
 [-0.24292966  5.4243502 ]
 [-0.24292966  5.4401406 ]
 [-0.24292966  5.4577781 ]
 [-0.24292966  5.4734743 ]
 [-0.24292966  5.4912283 ]
 [-0.24292966  5.5068022 ]
 [-0.24292966  5.5243224 ]
 [-0.24292966  5.5401604 ]
 [-0.24292966  5.5576796 ]
 [-0.24292966  5.5734445 ]
 [-0.24292966  5.5909692 ]
 [-0.24292966  5.6068425 ]
 [-0.24292966  5.6243715 ]
 [-0.24292966  5.6401668 ]
 [-0.24292966  5.657675  ]
 [-0.24292966  5.6734392 ]
 [-0.24292966  5.6912232 ]
 [-0.24292966  5.706896  ]
 [-0.24292966  5.7244424 ]
 [-0.24292966  5.7401186 ]
 [-0.24292966  5.7577606 ]
 [-0.24292966  5.7734346 ]
 [-0.24292966  5.7909445 ]
 [-0.24292966  5.80681   ]
 [-0.24292966  5.8244808 ]
 [-0.24292966  5.8401626 ]
 [-0.24292966  5.8575977 ]
 [-0.24292966  5.8734022 ]
 [-0.24292966  5.8910714 ]
 [-0.24292966  5.9067523 ]
 [-0.24292966  5.9244017 ]
 [-0.24292966  5.9401149 ]
 [-0.24292966  5.9576228 ]
 [-0.24292966  5.9734231 ]
 [-0.24292966  5.9909794 ]
 [-0.24292966  6.006773  ]
 [-0.24292966  6.0240738 ]
 [-0.24292966  6.0406585 ]]",6.01,None,None,None,None,None,False,False,False,False,False,False,False,"[[ 0.00000000e+00  7.29993917e-06]
 [ 0.00000000e+00  1.04622999e-02]
 [ 0.00000000e+00  2.69672000e-02]
 [ 0.00000000e+00  4.38010000e-02]
 [ 0.00000000e+00  6.04928000e-02]
 [ 0.00000000e+00  7.71628000e-02]
 [ 0.00000000e+00  9.38582000e-02]
 [ 0.00000000e+00  1.10799200e-01]
 [ 0.00000000e+00  1.27081100e-01]
 [ 0.00000000e+00  1.43791700e-01]
 [ 0.00000000e+00  1.60494500e-01]
 [ 0.00000000e+00  1.77147200e-01]
 [ 0.00000000e+00  1.93809400e-01]
 [ 0.00000000e+00  2.10486500e-01]
 [ 0.00000000e+00  2.27196400e-01]
 [ 0.00000000e+00  2.43797200e-01]
 [ 0.00000000e+00  2.60488900e-01]
 [ 0.00000000e+00  2.77155900e-01]
 [-1.61953105e-01  2.93750800e-01]
 [-1.54591600e-01  3.10410900e-01]
 [-1.54591600e-01  3.27079200e-01]
 [-1.54591600e-01  3.43808600e-01]
 [-1.39868591e-01  3.60321400e-01]
 [-1.32507086e-01  3.77113000e-01]
 [-1.32507086e-01  3.93789400e-01]
 [-1.10422572e-01  4.10488400e-01]
 [-1.10422572e-01  4.27120900e-01]
 [-1.10422572e-01  4.43795200e-01]
 [-1.10422572e-01  4.60486700e-01]
 [-1.03061067e-01  4.77117500e-01]
 [-8.09765525e-02  4.93676300e-01]
 [-7.36150477e-02  5.10489700e-01]
 [-5.15305334e-02  5.27078400e-01]
 [-4.41690286e-02  5.43803200e-01]
 [-1.47230095e-02  5.60428700e-01]
 [ 1.47230095e-02  5.77651200e-01]
 [ 4.41690286e-02  5.94253700e-01]
 [ 4.41690286e-02  6.11014100e-01]
 [ 6.62535429e-02  6.27675500e-01]
 [ 8.09765525e-02  6.44266500e-01]
 [ 8.83380573e-02  6.61004100e-01]
 [ 1.17784076e-01  6.77690300e-01]
 [ 1.47230095e-01  6.94263000e-01]
 [ 1.76676115e-01  7.11042100e-01]
 [ 1.91399124e-01  7.27564000e-01]
 [ 2.06122134e-01  7.44324700e-01]
 [ 2.20845143e-01  7.60928800e-01]
 [ 2.20845143e-01  7.77649500e-01]
 [ 2.50291162e-01  7.94225300e-01]
 [ 2.65014172e-01  8.10982800e-01]
 [ 2.79737181e-01  8.27558700e-01]
 [ 2.79737181e-01  8.44312900e-01]
 [ 2.79737181e-01  8.61000600e-01]
 [ 3.38629219e-01  8.77662300e-01]
 [ 3.68075239e-01  8.94233000e-01]
 [ 3.68075239e-01  9.11007900e-01]
 [ 3.68075239e-01  9.27682300e-01]
 [ 4.19605772e-01  9.44343700e-01]
 [ 4.19605772e-01  9.60934300e-01]
 [ 4.41690286e-01  9.77650100e-01]
 [ 4.71136305e-01  9.94228700e-01]
 [ 4.71136305e-01  1.01104670e+00]
 [ 4.78497810e-01  1.02756740e+00]
 [ 5.07943829e-01  1.04434020e+00]
 [ 5.07943829e-01  1.06095030e+00]
 [ 5.37389848e-01  1.07767810e+00]
 [ 5.44751353e-01  1.09428200e+00]
 [ 5.66835867e-01  1.11093530e+00]
 [ 5.81558877e-01  1.12767640e+00]
 [ 5.81558877e-01  1.14426790e+00]
 [ 5.96281887e-01  1.16100870e+00]
 [ 6.11004896e-01  1.17759210e+00]
 [ 6.11004896e-01  1.19434110e+00]
 [ 6.11004896e-01  1.21103650e+00]
 [ 6.11004896e-01  1.22767650e+00]
 [ 6.11004896e-01  1.24433240e+00]
 [ 6.11004896e-01  1.26101800e+00]
 [ 6.11004896e-01  1.27768290e+00]
 [ 6.11004896e-01  1.29434120e+00]
 [ 6.11004896e-01  1.31104090e+00]
 [ 6.99342953e-01  1.32723590e+00]
 [ 7.21427468e-01  1.34377550e+00]
 [ 7.28788972e-01  1.36050730e+00]
 [ 7.28788972e-01  1.37703340e+00]
 [ 7.36150477e-01  1.39381080e+00]
 [ 7.58234991e-01  1.41034280e+00]
 [ 7.65596496e-01  1.42709940e+00]
 [ 7.87681011e-01  1.44375300e+00]
 [ 8.09765525e-01  1.46047220e+00]
 [ 8.09765525e-01  1.47702030e+00]
 [ 8.17127030e-01  1.49380810e+00]
 [ 8.39211544e-01  1.51046520e+00]
 [ 8.61296058e-01  1.52718880e+00]
 [ 8.61296058e-01  1.54382950e+00]
 [ 8.98103582e-01  1.56051720e+00]
 [ 8.98103582e-01  1.57704300e+00]
 [ 8.98103582e-01  1.59380760e+00]
 [ 9.56995620e-01  1.61047920e+00]
 [ 9.71718630e-01  1.62709570e+00]
 [ 9.71718630e-01  1.64378690e+00]
 [ 9.71718630e-01  1.66055680e+00]
 [ 9.71718630e-01  1.67716510e+00]
 [ 1.00000000e+00  1.69432590e+00]
 [ 1.00000000e+00  1.71094110e+00]
 [ 1.00000000e+00  1.72767520e+00]
 [ 1.00000000e+00  1.74426730e+00]
 [ 1.00000000e+00  1.76101070e+00]
 [ 1.00000000e+00  1.77760370e+00]
 [ 1.00000000e+00  1.79434700e+00]
 [ 1.00000000e+00  1.81093260e+00]
 [ 1.00000000e+00  1.82768750e+00]
 [ 1.00000000e+00  1.84434920e+00]
 [ 1.00000000e+00  1.86100990e+00]
 [ 1.00000000e+00  1.87768420e+00]
 [ 1.00000000e+00  1.89435320e+00]
 [ 1.00000000e+00  1.91100210e+00]
 [ 1.00000000e+00  1.92769780e+00]
 [ 1.00000000e+00  1.94434510e+00]
 [ 1.00000000e+00  1.96094670e+00]
 [ 1.00000000e+00  1.97767840e+00]
 [ 1.00000000e+00  1.99434070e+00]
 [ 1.00000000e+00  2.01095140e+00]
 [ 9.79080135e-01  2.02768220e+00]
 [ 9.49634116e-01  2.04426960e+00]
 [ 9.20188096e-01  2.06103290e+00]
 [ 8.98103582e-01  2.07761480e+00]
 [ 8.76019068e-01  2.09436430e+00]
 [ 8.61296058e-01  2.11096280e+00]
 [ 8.09765525e-01  2.12769380e+00]
 [ 7.36150477e-01  2.14429190e+00]
 [ 7.36150477e-01  2.16102450e+00]
 [ 6.99342953e-01  2.17769370e+00]
 [ 6.40450915e-01  2.19425540e+00]
 [ 5.96281887e-01  2.21103260e+00]
 [ 5.96281887e-01  2.22760790e+00]
 [ 5.66835867e-01  2.24436190e+00]
 [ 4.71136305e-01  2.26096210e+00]
 [ 4.56413296e-01  2.27769150e+00]
 [ 3.97521258e-01  2.29425490e+00]
 [ 3.68075239e-01  2.31102310e+00]
 [ 3.38629219e-01  2.32761280e+00]
 [ 3.38629219e-01  2.34434660e+00]
 [ 2.35568153e-01  2.36101730e+00]
 [ 1.98760629e-01  2.37761420e+00]
 [ 1.76676115e-01  2.39435910e+00]
 [ 1.54591600e-01  2.41094470e+00]
 [ 1.25145581e-01  2.42769370e+00]
 [ 8.83380573e-02  2.44428280e+00]
 [-4.41690286e-02  2.46050760e+00]
 [-1.32507086e-01  2.47703630e+00]
 [-2.72375677e-01  2.49386080e+00]
 [-3.90159753e-01  2.51053000e+00]
 [-3.90159753e-01  2.52722970e+00]
 [-3.90159753e-01  2.54388900e+00]
 [-4.63774801e-01  2.56047700e+00]
 [-5.22666839e-01  2.57720620e+00]
 [-5.74197372e-01  2.59366980e+00]
 [-5.96281887e-01  2.61056800e+00]
 [-6.55173925e-01  2.62708030e+00]
 [-6.62535429e-01  2.64378720e+00]
 [-7.06704458e-01  2.66052250e+00]
 [-7.14065963e-01  2.67715050e+00]
 [-7.21427468e-01  2.69381720e+00]
 [-7.50873487e-01  2.71051490e+00]
 [-7.72958001e-01  2.72711700e+00]
 [-7.95042515e-01  2.74377360e+00]
 [-8.24488534e-01  2.76052070e+00]
 [-8.46573049e-01  2.77698870e+00]
 [-8.46573049e-01  2.79382240e+00]
 [-8.46573049e-01  2.81049690e+00]
 [-8.46573049e-01  2.82715700e+00]
 [-8.46573049e-01  2.84383450e+00]
 [-8.46573049e-01  2.86052100e+00]
 [-9.42272611e-01  2.87715340e+00]
 [-1.00000000e+00  2.89366000e+00]
 [-1.00000000e+00  2.91051460e+00]
 [-1.00000000e+00  2.92716000e+00]
 [-1.00000000e+00  2.94378390e+00]
 [-1.00000000e+00  2.96044250e+00]
 [-1.00000000e+00  2.97717570e+00]
 [-1.00000000e+00  2.99382480e+00]
 [-1.00000000e+00  3.01052470e+00]
 [-1.00000000e+00  3.02711340e+00]
 [-1.00000000e+00  3.04384570e+00]
 [-1.00000000e+00  3.06052320e+00]
 [-1.00000000e+00  3.07718500e+00]
 [-1.00000000e+00  3.09382410e+00]
 [-1.00000000e+00  3.11048010e+00]
 [-1.00000000e+00  3.12713410e+00]
 [-1.00000000e+00  3.14380350e+00]
 [-1.00000000e+00  3.16052170e+00]
 [-9.93803144e-01  3.17720100e+00]
 [-9.93803144e-01  3.19371880e+00]
 [-9.64357125e-01  3.21049890e+00]
 [-9.42272611e-01  3.22714790e+00]
 [-9.20188096e-01  3.24383850e+00]
 [-8.31850039e-01  3.26045180e+00]
 [-8.02404020e-01  3.27715470e+00]
 [-7.95042515e-01  3.29371290e+00]
 [-7.95042515e-01  3.31047530e+00]
 [-7.65596496e-01  3.32772480e+00]
 [-7.43511982e-01  3.34430630e+00]
 [-6.84619944e-01  3.36104660e+00]
 [-6.40450915e-01  3.37764740e+00]
 [-6.11004896e-01  3.39436940e+00]
 [-6.11004896e-01  3.41097540e+00]
 [-6.03643391e-01  3.42770900e+00]
 [-5.96281887e-01  3.44430690e+00]
 [-5.74197372e-01  3.46103920e+00]
 [-5.30028344e-01  3.47770920e+00]
 [-5.30028344e-01  3.49430460e+00]
 [-5.30028344e-01  3.51104310e+00]
 [-5.30028344e-01  3.52771300e+00]
 [-4.85859315e-01  3.54437970e+00]
 [-4.85859315e-01  3.56098530e+00]
 [-4.56413296e-01  3.57773890e+00]
 [-4.34328782e-01  3.59430640e+00]
 [-4.19605772e-01  3.61104900e+00]
 [-4.04882762e-01  3.62764190e+00]
 [-3.90159753e-01  3.64436810e+00]
 [-3.75436743e-01  3.66098890e+00]
 [-3.75436743e-01  3.67770950e+00]
 [-3.53352229e-01  3.69431030e+00]
 [-3.31267715e-01  3.71105270e+00]
 [-3.09183200e-01  3.72764050e+00]
 [-2.94460191e-01  3.74439270e+00]
 [-2.79737181e-01  3.76100080e+00]
 [-2.72375677e-01  3.77769870e+00]
 [-2.50291162e-01  3.79430030e+00]
 [-2.35568153e-01  3.81105170e+00]
 [-2.13483638e-01  3.82766080e+00]
 [-1.84037619e-01  3.84436110e+00]
 [-1.61953105e-01  3.86098130e+00]
 [-1.61953105e-01  3.87770650e+00]
 [-1.61953105e-01  3.89438240e+00]
 [-1.61953105e-01  3.91105080e+00]
 [-1.61953105e-01  3.92772900e+00]
 [-1.39868591e-01  3.94431700e+00]
 [-1.32507086e-01  3.96103980e+00]
 [-1.32507086e-01  3.97773520e+00]
 [-1.25145581e-01  3.99437640e+00]
 [-1.25145581e-01  4.01097210e+00]
 [-1.03061067e-01  4.02772410e+00]
 [-9.56995620e-02  4.04437500e+00]
 [-5.15305334e-02  4.06098560e+00]
 [-2.94460191e-02  4.07771750e+00]
 [-2.20845143e-02  4.09434310e+00]
 [-2.20845143e-02  4.11106240e+00]
 [ 1.47230095e-02  4.12771730e+00]
 [ 3.68075239e-02  4.14430350e+00]
 [ 5.88920382e-02  4.16104420e+00]
 [ 6.62535429e-02  4.17765280e+00]
 [ 8.83380573e-02  4.19438660e+00]
 [ 9.56995620e-02  4.21099150e+00]
 [ 9.56995620e-02  4.22770620e+00]
 [ 9.56995620e-02  4.24436690e+00]
 [ 9.56995620e-02  4.26103400e+00]
 [ 9.56995620e-02  4.27769790e+00]
 [ 9.56995620e-02  4.29437390e+00]
 [ 9.56995620e-02  4.31105330e+00]
 [ 9.56995620e-02  4.32770070e+00]
 [ 9.56995620e-02  4.34436780e+00]
 [ 9.56995620e-02  4.36104450e+00]
 [ 9.56995620e-02  4.37773540e+00]
 [ 9.56995620e-02  4.39438360e+00]
 [ 9.56995620e-02  4.41105640e+00]
 [ 9.56995620e-02  4.42718080e+00]
 [ 9.56995620e-02  4.44389890e+00]
 [ 9.56995620e-02  4.46104350e+00]
 [ 9.56995620e-02  4.47771700e+00]
 [ 9.56995620e-02  4.49441170e+00]
 [ 9.56995620e-02  4.51093550e+00]
 [ 9.56995620e-02  4.52772930e+00]
 [ 9.56995620e-02  4.54438900e+00]
 [ 9.56995620e-02  4.56108540e+00]
 [ 9.56995620e-02  4.57771360e+00]
 [ 9.56995620e-02  4.59436980e+00]
 [ 9.56995620e-02  4.61103640e+00]
 [ 9.56995620e-02  4.62774780e+00]
 [ 9.56995620e-02  4.64436550e+00]
 [ 9.56995620e-02  4.66106490e+00]
 [ 9.56995620e-02  4.67772130e+00]
 [ 9.56995620e-02  4.69437780e+00]
 [ 9.56995620e-02  4.71103790e+00]
 [ 9.56995620e-02  4.72771320e+00]
 [ 9.56995620e-02  4.74386160e+00]
 [ 9.56995620e-02  4.76054700e+00]
 [ 9.56995620e-02  4.77721500e+00]
 [ 9.56995620e-02  4.79381390e+00]
 [ 9.56995620e-02  4.81103910e+00]
 [ 9.56995620e-02  4.82773830e+00]
 [ 9.56995620e-02  4.84437250e+00]
 [ 9.56995620e-02  4.86105220e+00]
 [ 9.56995620e-02  4.87774690e+00]
 [ 9.56995620e-02  4.89439730e+00]
 [ 9.56995620e-02  4.91108880e+00]
 [ 9.56995620e-02  4.92772440e+00]
 [ 9.56995620e-02  4.94440660e+00]
 [ 9.56995620e-02  4.96106030e+00]
 [ 9.56995620e-02  4.97771700e+00]
 [ 9.56995620e-02  4.99438310e+00]
 [ 9.56995620e-02  5.01106260e+00]
 [ 9.56995620e-02  5.02771970e+00]
 [ 9.56995620e-02  5.04437720e+00]
 [ 9.56995620e-02  5.06105100e+00]
 [ 9.56995620e-02  5.07771280e+00]
 [ 9.56995620e-02  5.09438340e+00]
 [ 9.56995620e-02  5.11105080e+00]
 [ 9.56995620e-02  5.12775040e+00]
 [ 9.56995620e-02  5.14438220e+00]
 [ 9.56995620e-02  5.16052540e+00]
 [ 9.56995620e-02  5.17722780e+00]
 [ 9.56995620e-02  5.19438040e+00]
 [ 9.56995620e-02  5.21107790e+00]
 [ 9.56995620e-02  5.22771570e+00]
 [ 9.56995620e-02  5.24437830e+00]
 [ 9.56995620e-02  5.26107290e+00]
 [ 9.56995620e-02  5.27771100e+00]
 [ 9.56995620e-02  5.29438270e+00]
 [ 9.56995620e-02  5.31105920e+00]
 [ 9.56995620e-02  5.32772930e+00]
 [ 9.56995620e-02  5.34437550e+00]
 [ 9.56995620e-02  5.36097920e+00]
 [ 9.56995620e-02  5.37771600e+00]
 [ 9.56995620e-02  5.39390770e+00]
 [ 9.56995620e-02  5.41056260e+00]
 [ 9.56995620e-02  5.42719550e+00]
 [ 9.56995620e-02  5.44386250e+00]
 [ 9.56995620e-02  5.46055450e+00]
 [ 9.56995620e-02  5.47717650e+00]
 [ 9.56995620e-02  5.49388270e+00]
 [ 9.56995620e-02  5.51050470e+00]
 [ 9.56995620e-02  5.52723130e+00]
 [ 9.56995620e-02  5.54382410e+00]
 [ 9.56995620e-02  5.56057300e+00]
 [ 9.56995620e-02  5.57722680e+00]
 [ 9.56995620e-02  5.59388660e+00]
 [ 9.56995620e-02  5.61054430e+00]
 [ 9.56995620e-02  5.62720150e+00]
 [ 9.56995620e-02  5.64387320e+00]
 [ 9.56995620e-02  5.66056680e+00]
 [ 9.56995620e-02  5.67721210e+00]
 [ 9.56995620e-02  5.69386720e+00]
 [ 9.56995620e-02  5.71030850e+00]
 [ 9.56995620e-02  5.72720030e+00]
 [ 9.56995620e-02  5.74394140e+00]
 [ 9.56995620e-02  5.76064000e+00]
 [ 9.56995620e-02  5.77729310e+00]
 [ 9.56995620e-02  5.79386980e+00]
 [ 9.56995620e-02  5.81057330e+00]
 [ 9.56995620e-02  5.82715870e+00]
 [ 9.56995620e-02  5.84386890e+00]
 [ 9.56995620e-02  5.86056110e+00]
 [ 9.56995620e-02  5.87715450e+00]
 [ 9.56995620e-02  5.89389500e+00]
 [ 9.56995620e-02  5.91057280e+00]
 [ 9.56995620e-02  5.92720230e+00]
 [ 9.56995620e-02  5.94388910e+00]
 [ 9.56995620e-02  5.96056850e+00]
 [ 9.56995620e-02  5.97720660e+00]
 [ 9.56995620e-02  5.99390250e+00]
 [ 9.56995620e-02  6.01057380e+00]
 [ 9.56995620e-02  6.02716720e+00]]","[[1.40000000e+02 7.29993917e-06]
 [1.40000000e+02 1.04622999e-02]
 [1.40000000e+02 2.69672000e-02]
 [1.40000000e+02 4.38010000e-02]
 [1.40000000e+02 6.04928000e-02]
 [1.40000000e+02 7.71628000e-02]
 [1.40000000e+02 9.38582000e-02]
 [1.40000000e+02 1.10799200e-01]
 [1.40000000e+02 1.27081100e-01]
 [1.40000000e+02 1.43791700e-01]
 [1.40000000e+02 1.60494500e-01]
 [1.40000000e+02 1.77147200e-01]
 [1.40000000e+02 1.93809400e-01]
 [1.40000000e+02 2.10486500e-01]
 [1.40000000e+02 2.27196400e-01]
 [1.40000000e+02 2.43797200e-01]
 [1.40000000e+02 2.60488900e-01]
 [1.40000000e+02 2.77155900e-01]
 [1.40000000e+02 2.93750800e-01]
 [1.40000000e+02 3.10410900e-01]
 [1.40000000e+02 3.27079200e-01]
 [1.40000000e+02 3.43808600e-01]
 [1.40000000e+02 3.60321400e-01]
 [1.40000000e+02 3.77113000e-01]
 [1.40000000e+02 3.93789400e-01]
 [1.40000000e+02 4.10488400e-01]
 [1.40000000e+02 4.27120900e-01]
 [1.40000000e+02 4.43795200e-01]
 [1.40000000e+02 4.60486700e-01]
 [1.40000000e+02 4.77117500e-01]
 [1.40000000e+02 4.93676300e-01]
 [1.40000000e+02 5.10489700e-01]
 [1.40000000e+02 5.27078400e-01]
 [1.40000000e+02 5.43803200e-01]
 [1.28994550e+02 5.60428700e-01]
 [1.49312304e+02 5.77651200e-01]
 [1.68783484e+02 5.94253700e-01]
 [1.76402641e+02 6.11014100e-01]
 [1.86561518e+02 6.27675500e-01]
 [1.86561518e+02 6.44266500e-01]
 [1.86561518e+02 6.61004100e-01]
 [1.86561518e+02 6.77690300e-01]
 [1.86561518e+02 6.94263000e-01]
 [1.86561518e+02 7.11042100e-01]
 [1.86561518e+02 7.27564000e-01]
 [1.86561518e+02 7.44324700e-01]
 [1.86561518e+02 7.60928800e-01]
 [1.86561518e+02 7.77649500e-01]
 [1.86561518e+02 7.94225300e-01]
 [1.86561518e+02 8.10982800e-01]
 [1.88254664e+02 8.27558700e-01]
 [1.90794383e+02 8.44312900e-01]
 [1.94180675e+02 8.61000600e-01]
 [1.95027248e+02 8.77662300e-01]
 [1.98413540e+02 8.94233000e-01]
 [2.01799833e+02 9.11007900e-01]
 [2.04339552e+02 9.27682300e-01]
 [2.05186125e+02 9.44343700e-01]
 [2.08572417e+02 9.60934300e-01]
 [2.11112136e+02 9.77650100e-01]
 [2.11958709e+02 9.94228700e-01]
 [2.13651855e+02 1.01104670e+00]
 [2.17038147e+02 1.02756740e+00]
 [2.17884720e+02 1.04434020e+00]
 [2.20424440e+02 1.06095030e+00]
 [2.21271013e+02 1.07767810e+00]
 [2.26350451e+02 1.09428200e+00]
 [2.26350451e+02 1.11093530e+00]
 [2.37355901e+02 1.12767640e+00]
 [2.39895620e+02 1.14426790e+00]
 [2.39895620e+02 1.16100870e+00]
 [2.39895620e+02 1.17759210e+00]
 [2.43281912e+02 1.19434110e+00]
 [2.43281912e+02 1.21103650e+00]
 [2.48361350e+02 1.22767650e+00]
 [2.48361350e+02 1.24433240e+00]
 [2.52594215e+02 1.26101800e+00]
 [2.52594215e+02 1.27768290e+00]
 [2.52594215e+02 1.29434120e+00]
 [2.55000000e+02 1.31104090e+00]
 [2.55000000e+02 1.32723590e+00]
 [2.55000000e+02 1.34377550e+00]
 [2.55000000e+02 1.36050730e+00]
 [2.55000000e+02 1.37703340e+00]
 [2.55000000e+02 1.39381080e+00]
 [2.55000000e+02 1.41034280e+00]
 [2.55000000e+02 1.42709940e+00]
 [2.55000000e+02 1.44375300e+00]
 [2.55000000e+02 1.46047220e+00]
 [2.55000000e+02 1.47702030e+00]
 [2.55000000e+02 1.49380810e+00]
 [2.55000000e+02 1.51046520e+00]
 [2.55000000e+02 1.52718880e+00]
 [2.55000000e+02 1.54382950e+00]
 [2.55000000e+02 1.56051720e+00]
 [2.55000000e+02 1.57704300e+00]
 [2.55000000e+02 1.59380760e+00]
 [2.55000000e+02 1.61047920e+00]
 [2.55000000e+02 1.62709570e+00]
 [2.55000000e+02 1.64378690e+00]
 [2.55000000e+02 1.66055680e+00]
 [2.52594215e+02 1.67716510e+00]
 [2.44128485e+02 1.69432590e+00]
 [2.44128485e+02 1.71094110e+00]
 [2.36509328e+02 1.72767520e+00]
 [2.36509328e+02 1.74426730e+00]
 [2.31429889e+02 1.76101070e+00]
 [2.20424440e+02 1.77760370e+00]
 [2.11958709e+02 1.79434700e+00]
 [2.07725844e+02 1.81093260e+00]
 [1.95873821e+02 1.82768750e+00]
 [1.85714945e+02 1.84434920e+00]
 [1.79788933e+02 1.86100990e+00]
 [1.79788933e+02 1.87768420e+00]
 [1.72169776e+02 1.89435320e+00]
 [1.59471180e+02 1.91100210e+00]
 [1.40846573e+02 1.92769780e+00]
 [1.27301404e+02 1.94434510e+00]
 [1.20528820e+02 1.96094670e+00]
 [1.16295955e+02 1.97767840e+00]
 [1.16295955e+02 1.99434070e+00]
 [1.16295955e+02 2.01095140e+00]
 [1.14602809e+02 2.02768220e+00]
 [1.14602809e+02 2.04426960e+00]
 [1.12063089e+02 2.06103290e+00]
 [1.11216516e+02 2.07761480e+00]
 [1.11216516e+02 2.09436430e+00]
 [1.07830224e+02 2.11096280e+00]
 [1.06137078e+02 2.12769380e+00]
 [1.05290505e+02 2.14429190e+00]
 [1.04443932e+02 2.16102450e+00]
 [1.04443932e+02 2.17769370e+00]
 [1.00211067e+02 2.19425540e+00]
 [1.00211067e+02 2.21103260e+00]
 [9.51316284e+01 2.22760790e+00]
 [9.17453362e+01 2.24436190e+00]
 [8.32796057e+01 2.26096210e+00]
 [7.14275831e+01 2.27769150e+00]
 [6.46549987e+01 2.29425490e+00]
 [6.38084256e+01 2.31102310e+00]
 [6.38084256e+01 2.32761280e+00]
 [5.78824143e+01 2.34434660e+00]
 [5.19564029e+01 2.36101730e+00]
 [5.02632568e+01 2.37761420e+00]
 [4.51838185e+01 2.39435910e+00]
 [4.09509533e+01 2.41094470e+00]
 [3.41783689e+01 2.42769370e+00]
 [2.50000000e+01 2.44428280e+00]
 [2.50000000e+01 2.46050760e+00]
 [2.50000000e+01 2.47703630e+00]
 [2.50000000e+01 2.49386080e+00]
 [2.50000000e+01 2.51053000e+00]
 [2.50000000e+01 2.52722970e+00]
 [2.50000000e+01 2.54388900e+00]
 [2.50000000e+01 2.56047700e+00]
 [2.50000000e+01 2.57720620e+00]
 [2.50000000e+01 2.59366980e+00]
 [2.50000000e+01 2.61056800e+00]
 [2.50000000e+01 2.62708030e+00]
 [2.50000000e+01 2.64378720e+00]
 [2.50000000e+01 2.66052250e+00]
 [2.50000000e+01 2.67715050e+00]
 [2.50000000e+01 2.69381720e+00]
 [2.50000000e+01 2.71051490e+00]
 [2.50000000e+01 2.72711700e+00]
 [2.50000000e+01 2.74377360e+00]
 [2.50000000e+01 2.76052070e+00]
 [2.50000000e+01 2.77698870e+00]
 [2.50000000e+01 2.79382240e+00]
 [2.50000000e+01 2.81049690e+00]
 [2.50000000e+01 2.82715700e+00]
 [2.50000000e+01 2.84383450e+00]
 [2.50000000e+01 2.86052100e+00]
 [2.50000000e+01 2.87715340e+00]
 [2.50000000e+01 2.89366000e+00]
 [2.50000000e+01 2.91051460e+00]
 [2.50000000e+01 2.92716000e+00]
 [2.50000000e+01 2.94378390e+00]
 [2.50000000e+01 2.96044250e+00]
 [2.50000000e+01 2.97717570e+00]
 [2.50000000e+01 2.99382480e+00]
 [2.50000000e+01 3.01052470e+00]
 [2.50000000e+01 3.02711340e+00]
 [2.50000000e+01 3.04384570e+00]
 [2.50000000e+01 3.06052320e+00]
 [2.50000000e+01 3.07718500e+00]
 [2.50000000e+01 3.09382410e+00]
 [2.50000000e+01 3.11048010e+00]
 [2.50000000e+01 3.12713410e+00]
 [2.50000000e+01 3.14380350e+00]
 [2.50000000e+01 3.16052170e+00]
 [2.50000000e+01 3.17720100e+00]
 [2.50000000e+01 3.19371880e+00]
 [2.50000000e+01 3.21049890e+00]
 [2.50000000e+01 3.22714790e+00]
 [2.50000000e+01 3.24383850e+00]
 [2.50000000e+01 3.26045180e+00]
 [2.50000000e+01 3.27715470e+00]
 [2.50000000e+01 3.29371290e+00]
 [2.65592115e+01 3.31047530e+00]
 [2.90989306e+01 3.32772480e+00]
 [2.99455037e+01 3.34430630e+00]
 [3.16386498e+01 3.36104660e+00]
 [3.41783689e+01 3.37764740e+00]
 [3.75646611e+01 3.39436940e+00]
 [3.92578072e+01 3.41097540e+00]
 [4.51838185e+01 3.42770900e+00]
 [5.02632568e+01 3.44430690e+00]
 [5.11098299e+01 3.46103920e+00]
 [5.53426951e+01 3.47770920e+00]
 [6.12687065e+01 3.49430460e+00]
 [6.80412909e+01 3.51104310e+00]
 [6.80412909e+01 3.52771300e+00]
 [7.14275831e+01 3.54437970e+00]
 [7.65070213e+01 3.56098530e+00]
 [8.41261788e+01 3.57773890e+00]
 [9.00521901e+01 3.59430640e+00]
 [9.25919093e+01 3.61104900e+00]
 [9.34384823e+01 3.62764190e+00]
 [9.85179206e+01 3.64436810e+00]
 [1.02750786e+02 3.66098890e+00]
 [1.12063089e+02 3.67770950e+00]
 [1.15449382e+02 3.69431030e+00]
 [1.18835674e+02 3.71105270e+00]
 [1.18835674e+02 3.72764050e+00]
 [1.18835674e+02 3.74439270e+00]
 [1.18835674e+02 3.76100080e+00]
 [1.18835674e+02 3.77769870e+00]
 [1.18835674e+02 3.79430030e+00]
 [1.18835674e+02 3.81105170e+00]
 [1.18835674e+02 3.82766080e+00]
 [1.20528820e+02 3.84436110e+00]
 [1.21375393e+02 3.86098130e+00]
 [1.22221966e+02 3.87770650e+00]
 [1.24761685e+02 3.89438240e+00]
 [1.27301404e+02 3.91105080e+00]
 [1.28147977e+02 3.92772900e+00]
 [1.28147977e+02 3.94431700e+00]
 [1.31534270e+02 3.96103980e+00]
 [1.31534270e+02 3.97773520e+00]
 [1.36613708e+02 3.99437640e+00]
 [1.37460281e+02 4.01097210e+00]
 [1.37460281e+02 4.02772410e+00]
 [1.40846573e+02 4.04437500e+00]
 [1.40846573e+02 4.06098560e+00]
 [1.44232865e+02 4.07771750e+00]
 [1.44232865e+02 4.09434310e+00]
 [1.44232865e+02 4.11106240e+00]
 [1.46772584e+02 4.12771730e+00]
 [1.46772584e+02 4.14430350e+00]
 [1.46772584e+02 4.16104420e+00]
 [1.46772584e+02 4.17765280e+00]
 [1.46772584e+02 4.19438660e+00]
 [1.46772584e+02 4.21099150e+00]
 [1.46772584e+02 4.22770620e+00]
 [1.46772584e+02 4.24436690e+00]
 [1.46772584e+02 4.26103400e+00]
 [1.46772584e+02 4.27769790e+00]
 [1.46772584e+02 4.29437390e+00]
 [1.46772584e+02 4.31105330e+00]
 [1.46772584e+02 4.32770070e+00]
 [1.49312304e+02 4.34436780e+00]
 [1.49312304e+02 4.36104450e+00]
 [1.47619157e+02 4.37773540e+00]
 [1.45079438e+02 4.39438360e+00]
 [1.41693146e+02 4.41105640e+00]
 [1.41693146e+02 4.42718080e+00]
 [1.36613708e+02 4.44389890e+00]
 [1.34920562e+02 4.46104350e+00]
 [1.34920562e+02 4.47771700e+00]
 [1.33227416e+02 4.49441170e+00]
 [1.31534270e+02 4.51093550e+00]
 [1.31534270e+02 4.52772930e+00]
 [1.31534270e+02 4.54438900e+00]
 [1.31534270e+02 4.56108540e+00]
 [1.31534270e+02 4.57771360e+00]
 [1.31534270e+02 4.59436980e+00]
 [1.31534270e+02 4.61103640e+00]
 [1.31534270e+02 4.62774780e+00]
 [1.31534270e+02 4.64436550e+00]
 [1.31534270e+02 4.66106490e+00]
 [1.31534270e+02 4.67772130e+00]
 [1.31534270e+02 4.69437780e+00]
 [1.31534270e+02 4.71103790e+00]
 [1.31534270e+02 4.72771320e+00]
 [1.31534270e+02 4.74386160e+00]
 [1.31534270e+02 4.76054700e+00]
 [1.31534270e+02 4.77721500e+00]
 [1.30687696e+02 4.79381390e+00]
 [1.30687696e+02 4.81103910e+00]
 [1.23915112e+02 4.82773830e+00]
 [1.17989101e+02 4.84437250e+00]
 [1.12063089e+02 4.86105220e+00]
 [1.12063089e+02 4.87774690e+00]
 [1.09523370e+02 4.89439730e+00]
 [1.09523370e+02 4.91108880e+00]
 [1.11216516e+02 4.92772440e+00]
 [1.11216516e+02 4.94440660e+00]
 [1.11216516e+02 4.96106030e+00]
 [1.11216516e+02 4.97771700e+00]
 [1.11216516e+02 4.99438310e+00]
 [1.11216516e+02 5.01106260e+00]
 [1.11216516e+02 5.02771970e+00]
 [1.11216516e+02 5.04437720e+00]
 [1.11216516e+02 5.06105100e+00]
 [1.11216516e+02 5.07771280e+00]
 [1.11216516e+02 5.09438340e+00]
 [1.11216516e+02 5.11105080e+00]
 [1.11216516e+02 5.12775040e+00]
 [1.11216516e+02 5.14438220e+00]
 [1.11216516e+02 5.16052540e+00]
 [1.12063089e+02 5.17722780e+00]
 [1.12063089e+02 5.19438040e+00]
 [1.12063089e+02 5.21107790e+00]
 [1.12063089e+02 5.22771570e+00]
 [1.12063089e+02 5.24437830e+00]
 [1.12063089e+02 5.26107290e+00]
 [1.12063089e+02 5.27771100e+00]
 [1.12063089e+02 5.29438270e+00]
 [1.12063089e+02 5.31105920e+00]
 [1.12063089e+02 5.32772930e+00]
 [1.12063089e+02 5.34437550e+00]
 [1.12063089e+02 5.36097920e+00]
 [1.12063089e+02 5.37771600e+00]
 [1.12063089e+02 5.39390770e+00]
 [1.12063089e+02 5.41056260e+00]
 [1.12063089e+02 5.42719550e+00]
 [1.12063089e+02 5.44386250e+00]
 [1.12063089e+02 5.46055450e+00]
 [1.12063089e+02 5.47717650e+00]
 [1.12063089e+02 5.49388270e+00]
 [1.12063089e+02 5.51050470e+00]
 [1.12063089e+02 5.52723130e+00]
 [1.12063089e+02 5.54382410e+00]
 [1.12063089e+02 5.56057300e+00]
 [1.12063089e+02 5.57722680e+00]
 [1.12063089e+02 5.59388660e+00]
 [1.12063089e+02 5.61054430e+00]
 [1.12063089e+02 5.62720150e+00]
 [1.12063089e+02 5.64387320e+00]
 [1.12063089e+02 5.66056680e+00]
 [1.12063089e+02 5.67721210e+00]
 [1.12063089e+02 5.69386720e+00]
 [1.12063089e+02 5.71030850e+00]
 [1.12063089e+02 5.72720030e+00]
 [1.12063089e+02 5.74394140e+00]
 [1.12063089e+02 5.76064000e+00]
 [1.12063089e+02 5.77729310e+00]
 [1.12063089e+02 5.79386980e+00]
 [1.12063089e+02 5.81057330e+00]
 [1.12063089e+02 5.82715870e+00]
 [1.12063089e+02 5.84386890e+00]
 [1.12063089e+02 5.86056110e+00]
 [1.12063089e+02 5.87715450e+00]
 [1.12063089e+02 5.89389500e+00]
 [1.12063089e+02 5.91057280e+00]
 [1.12063089e+02 5.92720230e+00]
 [1.12063089e+02 5.94388910e+00]
 [1.12063089e+02 5.96056850e+00]
 [1.12063089e+02 5.97720660e+00]
 [1.12063089e+02 5.99390250e+00]
 [1.12063089e+02 6.01057380e+00]
 [1.12063089e+02 6.02716720e+00]]","[[ 0.00000000e+00  7.29993917e-06]
 [ 0.00000000e+00  1.04622999e-02]
 [ 0.00000000e+00  2.69672000e-02]
 [ 0.00000000e+00  4.38010000e-02]
 [ 0.00000000e+00  6.04928000e-02]
 [ 0.00000000e+00  7.71628000e-02]
 [ 0.00000000e+00  9.38582000e-02]
 [ 0.00000000e+00  1.10799200e-01]
 [ 0.00000000e+00  1.27081100e-01]
 [ 0.00000000e+00  1.43791700e-01]
 [ 0.00000000e+00  1.60494500e-01]
 [ 0.00000000e+00  1.77147200e-01]
 [ 0.00000000e+00  1.93809400e-01]
 [ 0.00000000e+00  2.10486500e-01]
 [ 0.00000000e+00  2.27196400e-01]
 [ 0.00000000e+00  2.43797200e-01]
 [ 0.00000000e+00  2.60488900e-01]
 [ 0.00000000e+00  2.77155900e-01]
 [ 0.00000000e+00  2.93750800e-01]
 [ 0.00000000e+00  3.10410900e-01]
 [ 0.00000000e+00  3.27079200e-01]
 [ 0.00000000e+00  3.43808600e-01]
 [ 0.00000000e+00  3.60321400e-01]
 [ 0.00000000e+00  3.77113000e-01]
 [ 0.00000000e+00  3.93789400e-01]
 [ 0.00000000e+00  4.10488400e-01]
 [ 0.00000000e+00  4.27120900e-01]
 [ 0.00000000e+00  4.43795200e-01]
 [ 0.00000000e+00  4.60486700e-01]
 [ 0.00000000e+00  4.77117500e-01]
 [ 0.00000000e+00  4.93676300e-01]
 [ 0.00000000e+00  5.10489700e-01]
 [ 0.00000000e+00  5.27078400e-01]
 [ 0.00000000e+00  5.43803200e-01]
 [-9.56995620e-02  5.60428700e-01]
 [ 8.09765525e-02  5.77651200e-01]
 [ 2.50291162e-01  5.94253700e-01]
 [ 3.16544705e-01  6.11014100e-01]
 [ 4.04882762e-01  6.27675500e-01]
 [ 4.04882762e-01  6.44266500e-01]
 [ 4.04882762e-01  6.61004100e-01]
 [ 4.04882762e-01  6.77690300e-01]
 [ 4.04882762e-01  6.94263000e-01]
 [ 4.04882762e-01  7.11042100e-01]
 [ 4.04882762e-01  7.27564000e-01]
 [ 4.04882762e-01  7.44324700e-01]
 [ 4.04882762e-01  7.60928800e-01]
 [ 4.04882762e-01  7.77649500e-01]
 [ 4.04882762e-01  7.94225300e-01]
 [ 4.04882762e-01  8.10982800e-01]
 [ 4.19605772e-01  8.27558700e-01]
 [ 4.41690286e-01  8.44312900e-01]
 [ 4.71136305e-01  8.61000600e-01]
 [ 4.78497810e-01  8.77662300e-01]
 [ 5.07943829e-01  8.94233000e-01]
 [ 5.37389848e-01  9.11007900e-01]
 [ 5.59474363e-01  9.27682300e-01]
 [ 5.66835867e-01  9.44343700e-01]
 [ 5.96281887e-01  9.60934300e-01]
 [ 6.18366401e-01  9.77650100e-01]
 [ 6.25727906e-01  9.94228700e-01]
 [ 6.40450915e-01  1.01104670e+00]
 [ 6.69896934e-01  1.02756740e+00]
 [ 6.77258439e-01  1.04434020e+00]
 [ 6.99342953e-01  1.06095030e+00]
 [ 7.06704458e-01  1.07767810e+00]
 [ 7.50873487e-01  1.09428200e+00]
 [ 7.50873487e-01  1.11093530e+00]
 [ 8.46573049e-01  1.12767640e+00]
 [ 8.68657563e-01  1.14426790e+00]
 [ 8.68657563e-01  1.16100870e+00]
 [ 8.68657563e-01  1.17759210e+00]
 [ 8.98103582e-01  1.19434110e+00]
 [ 8.98103582e-01  1.21103650e+00]
 [ 9.42272611e-01  1.22767650e+00]
 [ 9.42272611e-01  1.24433240e+00]
 [ 9.79080135e-01  1.26101800e+00]
 [ 9.79080135e-01  1.27768290e+00]
 [ 9.79080135e-01  1.29434120e+00]
 [ 1.00000000e+00  1.31104090e+00]
 [ 1.00000000e+00  1.32723590e+00]
 [ 1.00000000e+00  1.34377550e+00]
 [ 1.00000000e+00  1.36050730e+00]
 [ 1.00000000e+00  1.37703340e+00]
 [ 1.00000000e+00  1.39381080e+00]
 [ 1.00000000e+00  1.41034280e+00]
 [ 1.00000000e+00  1.42709940e+00]
 [ 1.00000000e+00  1.44375300e+00]
 [ 1.00000000e+00  1.46047220e+00]
 [ 1.00000000e+00  1.47702030e+00]
 [ 1.00000000e+00  1.49380810e+00]
 [ 1.00000000e+00  1.51046520e+00]
 [ 1.00000000e+00  1.52718880e+00]
 [ 1.00000000e+00  1.54382950e+00]
 [ 1.00000000e+00  1.56051720e+00]
 [ 1.00000000e+00  1.57704300e+00]
 [ 1.00000000e+00  1.59380760e+00]
 [ 1.00000000e+00  1.61047920e+00]
 [ 1.00000000e+00  1.62709570e+00]
 [ 1.00000000e+00  1.64378690e+00]
 [ 1.00000000e+00  1.66055680e+00]
 [ 9.79080135e-01  1.67716510e+00]
 [ 9.05465087e-01  1.69432590e+00]
 [ 9.05465087e-01  1.71094110e+00]
 [ 8.39211544e-01  1.72767520e+00]
