id,movie_path,dimension,hand,stimulus_type,order_emojis_slider,block,practice.thisRepN,practice.thisTrialN,practice.thisN,practice.thisIndex,trials.thisRepN,trials.thisTrialN,trials.thisN,trials.thisIndex,continuous_annotation,video_duration,valence_value,arousal_value,preference_value,engagement_value,familiarity_value,checkbox_Neutral,checkbox_Asco,checkbox_Felicidad,checkbox_Sorpresa,checkbox_Ira,checkbox_Miedo,checkbox_Tristeza,continuous_annotation_luminance,stim_value_green,stim_value,ID,Sesion,Tarea,Consumo de sustancias psicoactivas en las últimas 24 hs,Horas de sueño la noche anterior,date,exp_name,frame_rate,
99,../amsterdam_dynamic_facial_expression_set/F01-Fear-Face Forward.mp4,valence,right,LV-HA,direct,-1,0,0,0,0,,,,,"[[0.0, 0.022144899936392903], [0.0, 0.0386894999537617], [0.0, 0.05545049998909235], [0.0, 0.07203309994656593], [0.0, 0.08871539996471256], [0.0, 0.10534929996356368], [0.0, 0.1220535000320524], [0.0, 0.1386747999349609], [0.0, 0.15566940000280738], [0.0, 0.17210359999444336], [0.0, 0.188673899974674], [0.0, 0.20546019996982068], [0.0, 0.22198519995436072], [0.0, 0.23869020002894104], [0.0, 0.2554626000346616], [0.0, 0.27215209999121726], [0.0, 0.28869409998878837], [0.0, 0.30538359994534403], [0.0, 0.322050099959597], [0.0, 0.33869340003002435], [0.0, 0.3553832999896258], [0.0, 0.37196559994481504], [0.0, 0.38892429997213185], [0.0, 0.40528960002120584], [0.0, 0.42196519998833537], [0.0, 0.4386331000132486], [0.0, 0.45536399993579835], [0.0, 0.4720280999317765], [0.0, 0.48869060003198683], [0.0, 0.5053591999458149], [0.0, 0.5221013999544084], [0.0, 0.5387673999648541], [0.0, 0.5554885999299586], [0.0, 0.572032899945043], [0.0, 0.5886433999985456], [0.06625354294501662, 0.6056666999356821], [0.0956995620316905, 0.6222004999872297], [0.11042257157502755, 0.6387045999290422], [0.11778407634669597, 0.6555201000301167], [0.11778407634669597, 0.6720077999634668], [0.11778407634669597, 0.6887003999436274], [0.13250708589003302, 0.7053598000202328], [0.13986859066170143, 0.7221595000009984], [0.14723009543337007, 0.738732700003311], [0.14723009543337007, 0.755422699963674], [0.14723009543337007, 0.7719599000411108], [0.15459160020503848, 0.7886239000363275], [0.16195310497670712, 0.8053738999878988], [0.16931460974837553, 0.8221109999576584], [0.18403761929171258, 0.8386985999532044], [0.18403761929171258, 0.8554085999494419], [0.18403761929171258, 0.8721425000112504], [0.191399124063381, 0.8887047999305651], [0.20612213360671805, 0.9053780999965966], [0.2208451431500551, 0.9221199000021443], [0.3827982481267622, 0.9387676999904215], [0.6551739246784964, 0.9554559999378398], [0.9054650869152256, 0.9720312999561429], [1, 0.9881190999876708], [1, 1.0048459999961779], [1, 1.0216088999295607], [1, 1.038182699936442], [1, 1.0549262999556959], [1, 1.0715779999736696], [1, 1.0881815999746323], [1, 1.10496589995455], [1, 1.1215365999378264], [1, 1.138188499957323], [1, 1.1548062999499962], [1, 1.1714855999452993], [1, 1.1881534999702126], [1, 1.2048760999459773], [1, 1.2216317999409512], [1, 1.2381900999462232], [1, 1.2548204000340775], [1, 1.271530400030315], [1, 1.2881311000091955], [1, 1.3049282999709249], [1, 1.3216152000240982], [1, 1.33818489999976], [1, 1.3549474999308586], [1, 1.371502900030464], [1, 1.3881408999441192], [1, 1.40502559999004], [1, 1.4216090999543667], [1, 1.4381939999293536], [1, 1.454950499930419], [1, 1.4715910999802873], [1, 1.4882082999683917], [1, 1.5048063999274746], [1, 1.5215066999662668], [1, 1.53813210001681], [1, 1.5549510000273585], [1, 1.5714840999571607], [1, 1.588133899960667], [0.898103582143557, 1.6054214999312535], [0.7214274676235131, 1.6222075000405312], [0.6036433912768169, 1.6387237999588251], [0.5521128578751373, 1.655482199974358], [0.5079438292451264, 1.6721570999361575], [0.49322081970178955, 1.688746599946171], [0.4784978101584525, 1.7054467999842018], [0.4711363053867841, 1.7221413999795914], [0.43432878152844157, 1.7387205000268295], [0.4196057719851045, 1.7553762999596074], [0.40488276244176746, 1.7720562999602407], [0.39015975289843063, 1.7886426999466494], [0.3827982481267622, 1.805451099993661], [0.3533522290400881, 1.8221295999828726], [0.33126771472508265, 1.838713499950245], [0.2797371813234031, 1.8554388999473304], [0.250291162236729, 1.8721378999762237], [0.19876062883504964, 1.8887304000090808], [0.16195310497670712, 1.9053332000039518], [0.13250708589003302, 1.9220400999765843], [0.05889203817334798, 1.938713499926962], [0.0073615047716684145, 1.9554579999530688], [-0.04416902863001104, 1.972051199991256], [-0.08833805726002197, 1.9886460999259725], [-0.1251455811183645, 2.00546699995175], [-0.15459160020503848, 2.0221300999401137], [-0.17667611452004406, 2.0387072999728844], [-0.20612213360671805, 2.0554373000049964], [-0.2208451431500551, 2.07216119999066], [-0.22820664792172352, 2.0887189999921247], [-0.29446019086674, 2.1053230999968946], [-0.30182169563840844, 2.1231116999406368], [-0.3901597528984305, 2.138649999978952], [-0.4490517910717785, 2.1554565000114962], [-0.49322081970178944, 2.1721170999808237], [-0.5300283435601321, 2.188649500021711], [-0.544751353103469, 2.2054784999927506], [-0.5594743626468061, 2.2220527000026777], [-0.58892038173348, 2.238721300032921], [-0.6257279055918226, 2.255347399972379], [-0.6551739246784964, 2.272110400022939], [-0.6846199437651705, 2.2887238999828696], [-0.7140659628518444, 2.305464099976234], [-0.7287889723951815, 2.322115399991162], [-0.7508734867101869, 2.3387426999397576], [-0.8097655248835349, 2.3554451999953017], [-0.8171270296552035, 2.3720575999468565], [-0.8760190678285514, 2.388649499975145], [-0.956995620316905, 2.4054753000382334], [-0.986441639403579, 2.42207710002549], [-0.986441639403579, 2.438722599996254], [-0.986441639403579, 2.45548709994182], [-0.986441639403579, 2.4720280999317765], [-0.986441639403579, 2.488715299987234], [-0.986441639403579, 2.5053802999900654], [-0.986441639403579, 2.522150699980557], [-0.986441639403579, 2.5387035999447107], [-0.986441639403579, 2.5555464000208303], [-0.986441639403579, 2.5720474999397993], [-0.986441639403579, 2.5887153999647126], [-0.986441639403579, 2.6053559000138193], [-0.986441639403579, 2.6221163999289274], [-0.986441639403579, 2.638653100002557], [-0.986441639403579, 2.655438099987805], [-0.986441639403579, 2.672071999986656], [-0.986441639403579, 2.688698299927637], [-0.986441639403579, 2.705374200013466], [-0.986441639403579, 2.7221411999780685], [-0.986441639403579, 2.7387895999709144], [-0.986441639403579, 2.755463100038469], [-0.986441639403579, 2.7721105000237003], [-0.986441639403579, 2.788704299950041], [-0.986441639403579, 2.8053770000115037], [-0.986441639403579, 2.822293599951081], [-0.9938031441752475, 2.838719099992886], [-0.986441639403579, 2.8554013000102714], [-0.9496341155452365, 2.8721470999298617], [-0.9201880964585625, 2.8888092000270262], [-0.88338057260022, 2.9053825000301003], [-0.88338057260022, 2.9221118999412283], [-0.8171270296552035, 2.9387393000070006], [-0.765596496253524, 2.9553309000330046], [-0.706704458080176, 2.9720985000021756], [-0.6625354294501651, 2.9887040000176057], [-0.618366400820154, 3.0053383000195026], [-0.603643391276817, 3.021992599940859], [-0.58892038173348, 3.0387319999281317], [-0.5815588769618115, 3.055407000007108], [-0.5594743626468061, 3.072059200028889], [-0.5373898483318005, 3.088737400015816], [-0.4784978101584525, 3.105413099983707], [-0.4490517910717785, 3.122180699952878], [-0.382798248126762, 3.13870200002566], [-0.36807523858342495, 3.155454899999313], [-0.3459907242684195, 3.172042699996382], [-0.3239062099534139, 3.1887039999710396], [-0.29446019086674, 3.205454000039026], [-0.25029116223672887, 3.222170199966058], [-0.2208451431500551, 3.2387461999896914], [-0.21348363837838658, 3.2554917000234127], [-0.20612213360671805, 3.272186500020325], [-0.19876062883504952, 3.2888095999369398], [-0.16931460974837553, 3.305407300009392], [-0.161953104976707, 3.3221545999404043], [-0.14723009543337007, 3.338678600033745], [-0.14723009543337007, 3.355482699931599], [-0.14723009543337007, 3.372172600007616], [-0.14723009543337007, 3.3887113999808207], [-0.13986859066170154, 3.4053953000111505], [-0.13986859066170154, 3.422066699946299], [-0.13986859066170154, 3.438818100024946], [-0.13986859066170154, 3.455453100032173], [-0.13986859066170154, 3.472169899963774], [-0.13986859066170154, 3.4887196000199765], [-0.13986859066170154, 3.505578499985859], [-0.13986859066170154, 3.5221480999607593], [-0.13250708589003302, 3.5388385000405833], [-0.13250708589003302, 3.5554478999692947], [-0.13250708589003302, 3.5722070999909192], [-0.13250708589003302, 3.5887958999956027], [-0.13250708589003302, 3.605420000036247], [-0.13250708589003302, 3.6220427999505773], [-0.13250708589003302, 3.638730500009842], [-0.13250708589003302, 3.655418699956499], [-0.13250708589003302, 3.672050999943167], [-0.13250708589003302, 3.688726900028996], [-0.13250708589003302, 3.705380199942738], [-0.13250708589003302, 3.7221830999478698], [-0.1251455811183645, 3.7387591999722645], [-0.1251455811183645, 3.7554858999792486], [-0.11042257157502755, 3.7721523999935016], [-0.11042257157502755, 3.788820800022222], [-0.10306106680335902, 3.80534219997935], [-0.10306106680335902, 3.822009600000456], [-0.10306106680335902, 3.83867480000481], [-0.10306106680335902, 3.8554002000018954], [-0.10306106680335902, 3.8720875999424607], [-0.10306106680335902, 3.888821200001985], [-0.10306106680335902, 3.9054154999321327], [-0.10306106680335902, 3.9221413999330252], [-0.10306106680335902, 3.938717999961227], [-0.10306106680335902, 3.9553805999457836], [-0.10306106680335902, 3.9720517999958247], [-0.10306106680335902, 3.9888251000083983], [-0.10306106680335902, 4.005395999993198], [-0.10306106680335902, 4.022172200027853], [-0.10306106680335902, 4.038734299945645], [-0.0956995620316905, 4.0553803000366315], [-0.08833805726002197, 4.072092199930921], [-0.08833805726002197, 4.0887214000103995], [-0.07361504771668503, 4.105416800011881], [-0.07361504771668503, 4.122060399968177], [-0.06625354294501651, 4.138767599943094], [-0.06625354294501651, 4.155384699930437], [-0.05889203817334798, 4.172228100011125], [-0.05153053340167957, 4.188949599978514], [-0.04416902863001104, 4.205345900030807], [-0.04416902863001104, 4.222045099944808], [-0.04416902863001104, 4.238715199986473], [-0.04416902863001104, 4.255488599999808], [-0.04416902863001104, 4.272129399934784], [-0.04416902863001104, 4.288812299957499], [-0.04416902863001104, 4.305392000009306], [-0.04416902863001104, 4.322173499967903], [-0.04416902863001104, 4.338720200001262], [-0.04416902863001104, 4.355474699987099], [-0.04416902863001104, 4.372149099945091], [-0.04416902863001104, 4.3888139999471605], [-0.04416902863001104, 4.405420599970967], [-0.04416902863001104, 4.422149499994703], [-0.04416902863001104, 4.438739600009285], [-0.04416902863001104, 4.455483000027016], [-0.04416902863001104, 4.472204999998212], [-0.04416902863001104, 4.488814299926162], [-0.04416902863001104, 4.505412600003183], [-0.04416902863001104, 4.522145999944769], [-0.04416902863001104, 4.538749299943447], [-0.04416902863001104, 4.555510299978778], [-0.04416902863001104, 4.572183000040241], [-0.04416902863001104, 4.588842400000431], [-0.04416902863001104, 4.60538429999724], [-0.04416902863001104, 4.622058699955232], [-0.04416902863001104, 4.638747000019066], [-0.04416902863001104, 4.65550200000871], [-0.04416902863001104, 4.672065599937923], [-0.04416902863001104, 4.688740900019184], [-0.04416902863001104, 4.705408899928443], [-0.04416902863001104, 4.722177100018598], [-0.04416902863001104, 4.738742299959995], [-0.04416902863001104, 4.755485799978487], [-0.04416902863001104, 4.7722091999603435], [-0.04416902863001104, 4.788820200017653], [-0.04416902863001104, 4.805400999961421], [-0.04416902863001104, 4.82215359993279], [-0.04416902863001104, 4.8387569999322295], [-0.04416902863001104, 4.855521699995734], [-0.04416902863001104, 4.872175100026652], [-0.04416902863001104, 4.888816399965435], [-0.04416902863001104, 4.9053508000215515], [-0.04416902863001104, 4.922082799952477], [-0.04416902863001104, 4.938696900033392], [-0.04416902863001104, 4.955508499988355], [-0.04416902863001104, 4.972157899988815], [-0.04416902863001104, 4.98882109997794], [-0.04416902863001104, 5.005430800025351], [-0.04416902863001104, 5.022173900040798], [-0.04416902863001104, 5.038768799975514], [-0.04416902863001104, 5.055498800007626], [-0.04416902863001104, 5.072303600027226], [-0.04416902863001104, 5.088891900028102], [-0.04416902863001104, 5.10540779994335], [-0.04416902863001104, 5.122199499979615], [-0.04416902863001104, 5.138734600041062], [-0.04416902863001104, 5.1555227999342605], [-0.04416902863001104, 5.1721599999582395], [-0.04416902863001104, 5.188824799959548], [-0.04416902863001104, 5.205447599990293], [-0.04416902863001104, 5.222165299928747], [-0.04416902863001104, 5.2387533999281], [-0.04416902863001104, 5.255508000031114], [-0.04416902863001104, 5.2720352000324056], [-0.04416902863001104, 5.288826399948448], [-0.04416902863001104, 5.305428899941035], [-0.04416902863001104, 5.322161699994467], [-0.04416902863001104, 5.338733599986881], [-0.04416902863001104, 5.3555073000025], [-0.04416902863001104, 5.372118399944156], [-0.04416902863001104, 5.388825300033204], [-0.04416902863001104, 5.405361499986611], [-0.04416902863001104, 5.422157599939965], [-0.04416902863001104, 5.438738199998625], [-0.04416902863001104, 5.455509699997492], [-0.04416902863001104, 5.472070900024846], [-0.04416902863001104, 5.488823699997738], [-0.04416902863001104, 5.505353400018066], [-0.04416902863001104, 5.522222699946724], [-0.04416902863001104, 5.538728000014089], [-0.04416902863001104, 5.555552099947818], [-0.04416902863001104, 5.57206449995283], [-0.04416902863001104, 5.58884029998444], [-0.04416902863001104, 5.605421899934299], [-0.04416902863001104, 5.622157400008291], [-0.04416902863001104, 5.638757099979557], [-0.04416902863001104, 5.655487500014715], [-0.04416902863001104, 5.672195799998008], [-0.04416902863001104, 5.688820699928328], [-0.04416902863001104, 5.705453300033696], [-0.04416902863001104, 5.722095999983139], [-0.04416902863001104, 5.738697999971919], [-0.04416902863001104, 5.75550289999228], [-0.04416902863001104, 5.772166599985212], [-0.04416902863001104, 5.788827599957585], [-0.04416902863001104, 5.805488999933004], [-0.04416902863001104, 5.822170499945059], [-0.04416902863001104, 5.838743199943565], [-0.04416902863001104, 5.855495300027542], [-0.04416902863001104, 5.8720674000214785], [-0.04416902863001104, 5.88882500003092], [-0.04416902863001104, 5.905431799939834], [-0.04416902863001104, 5.922187799937092], [-0.04416902863001104, 5.938750499975868], [-0.04416902863001104, 5.955386499990709], [-0.04416902863001104, 5.972118700039573], [-0.04416902863001104, 5.988723599934019], [-0.04416902863001104, 6.005470499978401], [-0.04416902863001104, 6.02217719994951], [-0.04416902863001104, 6.038732699933462], [-0.04416902863001104, 6.055520699941553]]",6.01,,,,,,,,,,,,,,,,30,A,non_immersive,No,8,2024-05-03_10h49.30.020,Experiment_VR_non_immersive,59.961276991679256,
2,../amsterdam_dynamic_facial_expression_set/F01-Disgust-Face Forward.mp4,arousal,right,HV-LA,direct,0,,,,,0,0,0,1,"[[ 0.          0.016875  ]
 [ 0.          0.0334211 ]
 [ 0.          0.0500691 ]
 [ 0.          0.0670331 ]
 [ 0.          0.0833553 ]
 [ 0.          0.1010065 ]
 [ 0.          0.1166485 ]
 [ 0.          0.1342396 ]
 [ 0.          0.1500007 ]
 [ 0.          0.1675395 ]
 [ 0.          0.1833136 ]
 [ 0.          0.2009128 ]
 [ 0.          0.216714  ]
 [ 0.          0.234201  ]
 [ 0.          0.2499927 ]
 [ 0.          0.2674704 ]
 [ 0.          0.2834182 ]
 [ 0.          0.3010162 ]
 [ 0.          0.3166888 ]
 [ 0.          0.3342536 ]
 [ 0.          0.3500207 ]
 [ 0.          0.3675789 ]
 [ 0.          0.3832164 ]
 [ 0.          0.401     ]
 [ 0.          0.4166348 ]
 [ 0.          0.434212  ]
 [ 0.02208451  0.4502315 ]
 [ 0.05153053  0.4676421 ]
 [ 0.11042257  0.4835045 ]
 [ 0.1619531   0.5014849 ]
 [ 0.19139912  0.5171842 ]
 [ 0.22820665  0.5343465 ]
 [ 0.27237568  0.5500578 ]
 [ 0.37543674  0.5680536 ]
 [ 0.41960577  0.5838753 ]
 [ 0.42696728  0.6011222 ]
 [ 0.44169029  0.6167438 ]
 [ 0.44169029  0.634176  ]
 [ 0.44905179  0.6502191 ]
 [ 0.47113631  0.6677674 ]
 [ 0.50058232  0.6838132 ]
 [ 0.52266684  0.7009403 ]
 [ 0.54475135  0.7168406 ]
 [ 0.55211286  0.7344022 ]
 [ 0.58155888  0.7505665 ]
 [ 0.60364339  0.7676433 ]
 [ 0.6183664   0.7835731 ]
 [ 0.66253543  0.8011033 ]
 [ 0.69198145  0.8170488 ]
 [ 0.72142747  0.8343067 ]
 [ 0.78031951  0.8502002 ]
 [ 0.81712703  0.8679483 ]
 [ 0.85393455  0.8834926 ]
 [ 0.89074208  0.9010719 ]
 [ 0.91282659  0.9172184 ]
 [ 0.9275496   0.9344267 ]
 [ 0.94227261  0.9502049 ]
 [ 0.98644164  0.9677125 ]
 [ 0.99380314  0.9837951 ]
 [ 1.          1.0011038 ]
 [ 1.          1.0167417 ]
 [ 1.          1.034363  ]
 [ 1.          1.050194  ]
 [ 1.          1.0674495 ]
 [ 1.          1.0833211 ]
 [ 1.          1.1010914 ]
 [ 1.          1.1166849 ]
 [ 1.          1.1342904 ]
 [ 1.          1.1500462 ]
 [ 1.          1.1675177 ]
 [ 1.          1.183324  ]
 [ 1.          1.2009561 ]
 [ 1.          1.2166818 ]
 [ 1.          1.2342321 ]
 [ 1.          1.2500541 ]
 [ 1.          1.2675552 ]
 [ 1.          1.2833108 ]
 [ 1.          1.3006832 ]
 [ 1.          1.316603  ]
 [ 1.          1.3344539 ]
 [ 1.          1.3502335 ]
 [ 0.99380314  1.3677761 ]
 [ 0.96435713  1.3836617 ]
 [ 0.94227261  1.401112  ]
 [ 0.9275496   1.4170612 ]
 [ 0.9201881   1.4344249 ]
 [ 0.89074208  1.4502163 ]
 [ 0.87601907  1.4677054 ]
 [ 0.84657305  1.4835139 ]
 [ 0.80976552  1.5014194 ]
 [ 0.7655965   1.5168561 ]
 [ 0.73615048  1.5343621 ]
 [ 0.69934295  1.5505166 ]
 [ 0.6183664   1.567861  ]
 [ 0.59628189  1.5838471 ]
 [ 0.53738985  1.6010984 ]
 [ 0.48585931  1.6170397 ]
 [ 0.44905179  1.6342595 ]
 [ 0.39752126  1.6503741 ]
 [ 0.36071373  1.6676613 ]
 [ 0.31654471  1.6834269 ]
 [ 0.27237568  1.7014251 ]
 [ 0.23556815  1.7168191 ]
 [ 0.17667611  1.7347114 ]
 [ 0.11778408  1.7502357 ]
 [-0.0073615   1.7680585 ]
 [-0.08097655  1.7839576 ]
 [-0.13986859  1.8014288 ]
 [-0.16931461  1.8167777 ]
 [-0.20612213  1.8345887 ]
 [-0.21348364  1.8502128 ]
 [-0.25029116  1.8677848 ]
 [-0.28709869  1.8835531 ]
 [-0.34599072  1.9014651 ]
 [-0.37543674  1.9168445 ]
 [-0.41960577  1.9347138 ]
 [-0.44905179  1.9502335 ]
 [-0.49322082  1.9676367 ]
 [-0.53002834  1.983981  ]
 [-0.55947436  2.0010929 ]
 [-0.60364339  2.0171202 ]
 [-0.63308941  2.0342653 ]
 [-0.68461994  2.0502106 ]
 [-0.71406596  2.0680136 ]
 [-0.74351198  2.0835087 ]
 [-0.7655965   2.1011745 ]
 [-0.772958    2.1172163 ]
 [-0.78768101  2.1344286 ]
 [-0.79504252  2.1502296 ]
 [-0.83921154  2.1677528 ]
 [-0.87601907  2.183629  ]
 [-0.89074208  2.2014074 ]
 [-0.91282659  2.2167642 ]
 [-0.91282659  2.2342408 ]
 [-0.91282659  2.2500705 ]
 [-0.91282659  2.267601  ]
 [-0.93491111  2.2836051 ]
 [-0.95699562  2.3011673 ]
 [-0.97908013  2.3171864 ]
 [-0.98644164  2.3344124 ]
 [-0.98644164  2.3500982 ]
 [-1.          2.3677088 ]
 [-1.          2.3836294 ]
 [-1.          2.4011277 ]
 [-1.          2.4169    ]
 [-1.          2.4341611 ]
 [-1.          2.4500768 ]
 [-1.          2.4675676 ]
 [-1.          2.483353  ]
 [-1.          2.5009447 ]
 [-1.          2.5166924 ]
 [-1.          2.5341062 ]
 [-1.          2.5500489 ]
 [-1.          2.5673521 ]
 [-1.          2.5833471 ]
 [-1.          2.6009012 ]
 [-1.          2.6166757 ]
 [-1.          2.6342732 ]
 [-1.          2.650061  ]
 [-1.          2.6675624 ]
 [-1.          2.6835474 ]
 [-1.          2.7012134 ]
 [-1.          2.7167916 ]
 [-1.          2.7343914 ]
 [-1.          2.7502479 ]
 [-0.95699562  2.7677666 ]
 [-0.95699562  2.7833976 ]
 [-0.91282659  2.8010934 ]
 [-0.86865756  2.8170688 ]
 [-0.81712703  2.8343074 ]
 [-0.72878897  2.850395  ]
 [-0.65517392  2.8681199 ]
 [-0.59628189  2.8835524 ]
 [-0.56683587  2.9014631 ]
 [-0.53738985  2.9168787 ]
 [-0.53738985  2.9345753 ]
 [-0.52266684  2.9502445 ]
 [-0.50058232  2.9678204 ]
 [-0.50058232  2.9833927 ]
 [-0.47113631  3.0011592 ]
 [-0.44905179  3.016809  ]
 [-0.43432878  3.034677  ]
 [-0.42696728  3.0501907 ]
 [-0.40488276  3.0678418 ]
 [-0.39015975  3.0834423 ]
 [-0.38279825  3.1010897 ]
 [-0.36807524  3.1168872 ]
 [-0.34599072  3.1344443 ]
 [-0.32390621  3.1505305 ]
 [-0.26501417  3.1677883 ]
 [-0.24292966  3.1835542 ]
 [-0.23556815  3.201443  ]
 [-0.22084514  3.2168545 ]
 [-0.21348364  3.2343559 ]
 [-0.20612213  3.250096  ]
 [-0.19876063  3.2677965 ]
 [-0.18403762  3.2835418 ]
 [-0.1472301   3.3011317 ]
 [-0.11778408  3.3172139 ]
 [-0.08833806  3.3344296 ]
 [-0.06625354  3.3502532 ]
 [-0.05153053  3.3677599 ]
 [-0.05153053  3.3836073 ]
 [-0.05153053  3.401002  ]
 [-0.05153053  3.4165903 ]
 [-0.04416903  3.4342894 ]
 [-0.03680752  3.4502708 ]
 [-0.03680752  3.4676619 ]
 [-0.03680752  3.4833033 ]
 [-0.03680752  3.50101   ]
 [-0.03680752  3.5166948 ]
 [-0.03680752  3.5342144 ]
 [-0.03680752  3.5500992 ]
 [-0.03680752  3.5675791 ]
 [-0.03680752  3.5833925 ]
 [-0.03680752  3.6007612 ]
 [-0.03680752  3.616613  ]
 [-0.03680752  3.6341926 ]
 [-0.03680752  3.6500436 ]
 [-0.03680752  3.6676432 ]
 [-0.03680752  3.6833805 ]
 [-0.03680752  3.7009704 ]
 [-0.03680752  3.7166734 ]
 [-0.03680752  3.7342241 ]
 [-0.03680752  3.7500657 ]
 [-0.03680752  3.7676818 ]
 [-0.03680752  3.7833453 ]
 [-0.03680752  3.8009937 ]
 [-0.03680752  3.816713  ]
 [-0.03680752  3.8342443 ]
 [-0.03680752  3.850122  ]
 [-0.03680752  3.8677548 ]
 [-0.03680752  3.8834176 ]
 [-0.03680752  3.9010677 ]
 [-0.03680752  3.9167219 ]
 [-0.03680752  3.9342559 ]
 [-0.03680752  3.9501045 ]
 [-0.03680752  3.9675925 ]
 [-0.03680752  3.9834194 ]
 [-0.03680752  4.0007759 ]
 [-0.03680752  4.0166393 ]
 [-0.03680752  4.0342658 ]
 [-0.03680752  4.050055  ]
 [-0.03680752  4.0676855 ]
 [-0.03680752  4.0833757 ]
 [-0.03680752  4.1009908 ]
 [-0.03680752  4.1166164 ]
 [-0.03680752  4.1343234 ]
 [-0.03680752  4.150065  ]
 [-0.03680752  4.1676669 ]
 [-0.03680752  4.1832843 ]
 [-0.03680752  4.2010437 ]
 [-0.03680752  4.2168102 ]
 [-0.03680752  4.2343039 ]
 [-0.03680752  4.2502036 ]
 [-0.03680752  4.2679104 ]
 [-0.03680752  4.2834813 ]
 [-0.03680752  4.3010911 ]
 [-0.03680752  4.3167231 ]
 [-0.03680752  4.3343238 ]
 [-0.03680752  4.3501017 ]
 [-0.03680752  4.36764   ]
 [-0.03680752  4.3834057 ]
 [-0.03680752  4.4008176 ]
 [-0.03680752  4.4167059 ]
 [-0.03680752  4.4343243 ]
 [-0.03680752  4.4501274 ]
 [-0.03680752  4.4676688 ]
 [-0.03680752  4.4833753 ]
 [-0.03680752  4.5010222 ]
 [-0.03680752  4.5167213 ]
 [-0.03680752  4.5342544 ]
 [-0.03680752  4.5500996 ]
 [-0.03680752  4.5676402 ]
 [-0.03680752  4.5833984 ]
 [-0.03680752  4.6011329 ]
 [-0.03680752  4.6167902 ]
 [-0.03680752  4.6343954 ]
 [-0.03680752  4.6501233 ]
 [-0.03680752  4.6676354 ]
 [-0.03680752  4.6833837 ]
 [-0.03680752  4.7010415 ]
 [-0.03680752  4.716782  ]
 [-0.03680752  4.7342411 ]
 [-0.03680752  4.7499497 ]
 [-0.03680752  4.7677208 ]
 [-0.03680752  4.7833858 ]
 [-0.03680752  4.8009539 ]
 [-0.03680752  4.816728  ]
 [-0.03680752  4.8341358 ]
 [-0.03680752  4.8500983 ]
 [-0.03680752  4.8676932 ]
 [-0.03680752  4.8834262 ]
 [-0.03680752  4.9010199 ]
 [-0.03680752  4.9167221 ]
 [-0.03680752  4.9342919 ]
 [-0.03680752  4.9501569 ]
 [-0.03680752  4.96772   ]
 [-0.03680752  4.9833889 ]
 [-0.03680752  5.0009754 ]
 [-0.03680752  5.0166995 ]
 [-0.03680752  5.0342228 ]
 [-0.03680752  5.0501212 ]
 [-0.03680752  5.0675707 ]
 [-0.03680752  5.0832703 ]
 [-0.03680752  5.1008309 ]
 [-0.03680752  5.1166087 ]
 [-0.03680752  5.1342385 ]
 [-0.03680752  5.1501134 ]
 [-0.03680752  5.1676008 ]
 [-0.03680752  5.1834304 ]
 [-0.03680752  5.2009689 ]
 [-0.03680752  5.2167387 ]
 [-0.03680752  5.2342198 ]
 [-0.03680752  5.2500872 ]
 [-0.03680752  5.2677193 ]
 [-0.03680752  5.2834061 ]
 [-0.03680752  5.3010403 ]
 [-0.03680752  5.3167102 ]
 [-0.03680752  5.3342991 ]
 [-0.03680752  5.350166  ]
 [-0.03680752  5.3676076 ]
 [-0.03680752  5.3834154 ]
 [-0.03680752  5.4009849 ]
 [-0.03680752  5.4167582 ]
 [-0.03680752  5.4342758 ]
 [-0.03680752  5.4501602 ]
 [-0.03680752  5.4675482 ]
 [-0.03680752  5.4834291 ]
 [-0.03680752  5.5008597 ]
 [-0.03680752  5.5166479 ]
 [-0.03680752  5.5343359 ]
 [-0.03680752  5.5500546 ]
 [-0.03680752  5.5676204 ]
 [-0.03680752  5.5833923 ]
 [-0.03680752  5.6009594 ]
 [-0.03680752  5.6165799 ]
 [-0.03680752  5.6341669 ]
 [-0.03680752  5.6501387 ]
 [-0.03680752  5.6675761 ]
 [-0.03680752  5.6833797 ]
 [-0.03680752  5.700963  ]
 [-0.03680752  5.716743  ]
 [-0.03680752  5.7342195 ]
 [-0.03680752  5.7501076 ]
 [-0.03680752  5.7675831 ]
 [-0.03680752  5.7833927 ]
 [-0.03680752  5.8009713 ]
 [-0.03680752  5.8166971 ]
 [-0.03680752  5.8341803 ]
 [-0.03680752  5.8499588 ]
 [-0.03680752  5.8676192 ]
 [-0.03680752  5.883418  ]
 [-0.03680752  5.9010161 ]
 [-0.03680752  5.9166779 ]
 [-0.03680752  5.933838  ]
 [-0.03680752  5.9505634 ]]",6.01,None,None,None,None,None,False,False,False,False,False,True,True,"[[ 0.00000000e+00  7.00005330e-06]
 [ 0.00000000e+00  1.45722000e-02]
 [ 0.00000000e+00  3.12405000e-02]
 [ 0.00000000e+00  4.79046000e-02]
 [ 0.00000000e+00  6.45828000e-02]
 [ 0.00000000e+00  8.12329000e-02]
 [ 0.00000000e+00  9.78981000e-02]
 [ 0.00000000e+00  1.14567800e-01]
 [ 0.00000000e+00  1.31239900e-01]
 [ 0.00000000e+00  1.47906000e-01]
 [ 0.00000000e+00  1.64574600e-01]
 [ 0.00000000e+00  1.81233500e-01]
 [ 0.00000000e+00  1.97894800e-01]
 [ 0.00000000e+00  2.14567500e-01]
 [ 0.00000000e+00  2.31240700e-01]
 [ 0.00000000e+00  2.47900300e-01]
 [ 0.00000000e+00  2.64572500e-01]
 [ 0.00000000e+00  2.80743200e-01]
 [ 0.00000000e+00  2.97403500e-01]
 [ 0.00000000e+00  3.14127200e-01]
 [ 0.00000000e+00  3.30787100e-01]
 [ 0.00000000e+00  3.47418900e-01]
 [ 0.00000000e+00  3.64129700e-01]
 [ 0.00000000e+00  3.80780100e-01]
 [ 0.00000000e+00  3.97407000e-01]
 [ 0.00000000e+00  4.14113700e-01]
 [-7.36150477e-03  4.30646700e-01]
 [-7.36150477e-03  4.47445300e-01]
 [-7.36150477e-03  4.64574500e-01]
 [-7.36150477e-03  4.81239000e-01]
 [-7.36150477e-03  4.97905700e-01]
 [-7.36150477e-03  5.14572700e-01]
 [-7.36150477e-03  5.31244000e-01]
 [ 0.00000000e+00  5.47904900e-01]
 [ 0.00000000e+00  5.64580800e-01]
 [ 7.36150477e-03  5.81241900e-01]
 [ 7.36150477e-03  5.97912100e-01]
 [ 7.36150477e-03  6.14577100e-01]
 [ 1.47230095e-02  6.31242900e-01]
 [ 1.47230095e-02  6.47911500e-01]
 [ 2.94460191e-02  6.64577900e-01]
 [ 2.94460191e-02  6.81241700e-01]
 [ 3.68075239e-02  6.97917500e-01]
 [ 8.09765525e-02  7.14580200e-01]
 [ 1.10422572e-01  7.31249200e-01]
 [ 1.32507086e-01  7.47915000e-01]
 [ 1.54591600e-01  7.64572600e-01]
 [ 1.69314610e-01  7.81243200e-01]
 [ 1.76676115e-01  7.97894700e-01]
 [ 1.76676115e-01  8.14579200e-01]
 [ 1.91399124e-01  8.31247300e-01]
 [ 2.06122134e-01  8.47916900e-01]
 [ 2.28206648e-01  8.64589500e-01]
 [ 2.35568153e-01  8.81244900e-01]
 [ 2.65014172e-01  8.97905000e-01]
 [ 2.72375677e-01  9.14577900e-01]
 [ 2.87098686e-01  9.31246300e-01]
 [ 3.01821696e-01  9.47922400e-01]
 [ 3.23906210e-01  9.64582300e-01]
 [ 3.68075239e-01  9.81261000e-01]
 [ 3.97521258e-01  9.97913200e-01]
 [ 4.19605772e-01  1.01458520e+00]
 [ 4.41690286e-01  1.03125020e+00]
 [ 4.71136305e-01  1.04791570e+00]
 [ 4.93220820e-01  1.06458160e+00]
 [ 5.07943829e-01  1.08124320e+00]
 [ 5.44751353e-01  1.09790290e+00]
 [ 5.74197372e-01  1.11458270e+00]
 [ 5.81558877e-01  1.13125080e+00]
 [ 6.03643391e-01  1.14793570e+00]
 [ 6.18366401e-01  1.16458450e+00]
 [ 6.33089410e-01  1.18124990e+00]
 [ 6.47812420e-01  1.19793290e+00]
 [ 6.77258439e-01  1.21458730e+00]
 [ 6.84619944e-01  1.23125280e+00]
 [ 6.91981449e-01  1.24792130e+00]
 [ 7.14065963e-01  1.26458840e+00]
 [ 7.14065963e-01  1.28080960e+00]
 [ 7.21427468e-01  1.29742140e+00]
 [ 7.21427468e-01  1.31414160e+00]
 [ 7.21427468e-01  1.33081070e+00]
 [ 7.36150477e-01  1.34747850e+00]
 [ 7.58234991e-01  1.36414750e+00]
 [ 7.87681011e-01  1.38124270e+00]
 [ 8.02404020e-01  1.39792200e+00]
 [ 8.09765525e-01  1.41459360e+00]
 [ 8.09765525e-01  1.43125090e+00]
 [ 8.24488534e-01  1.44792060e+00]
 [ 8.24488534e-01  1.46459080e+00]
 [ 8.24488534e-01  1.48124680e+00]
 [ 8.24488534e-01  1.49792400e+00]
 [ 8.24488534e-01  1.51459890e+00]
 [ 8.24488534e-01  1.53125990e+00]
 [ 8.31850039e-01  1.54792430e+00]
 [ 8.31850039e-01  1.56458790e+00]
 [ 8.39211544e-01  1.58125580e+00]
 [ 8.39211544e-01  1.59792580e+00]
 [ 8.39211544e-01  1.61459530e+00]
 [ 8.39211544e-01  1.63126010e+00]
 [ 8.53934554e-01  1.64793140e+00]
 [ 8.61296058e-01  1.66458780e+00]
 [ 8.61296058e-01  1.68125740e+00]
 [ 8.61296058e-01  1.69792180e+00]
 [ 8.61296058e-01  1.71459580e+00]
 [ 8.61296058e-01  1.73126060e+00]
 [ 8.39211544e-01  1.74793170e+00]
 [ 8.31850039e-01  1.76459120e+00]
 [ 8.24488534e-01  1.78126000e+00]
 [ 7.72958001e-01  1.79792710e+00]
 [ 6.69896934e-01  1.81460470e+00]
 [ 5.81558877e-01  1.83125750e+00]
 [ 5.81558877e-01  1.84794970e+00]
 [ 5.66835867e-01  1.86459420e+00]
 [ 5.59474363e-01  1.88126970e+00]
 [ 5.44751353e-01  1.89792900e+00]
 [ 5.30028344e-01  1.91459870e+00]
 [ 5.00582324e-01  1.93126760e+00]
 [ 4.49051791e-01  1.94793360e+00]
 [ 3.97521258e-01  1.96459760e+00]
 [ 3.60713734e-01  1.98126780e+00]
 [ 3.23906210e-01  1.99793160e+00]
 [ 2.72375677e-01  2.01459590e+00]
 [ 2.13483638e-01  2.03126340e+00]
 [ 1.76676115e-01  2.04792920e+00]
 [ 1.10422572e-01  2.06459760e+00]
 [ 4.41690286e-02  2.08126510e+00]
 [-1.47230095e-02  2.09792670e+00]
 [-9.56995620e-02  2.11459590e+00]
 [-1.32507086e-01  2.13126690e+00]
 [-1.54591600e-01  2.14797240e+00]
 [-1.61953105e-01  2.16459690e+00]
 [-2.13483638e-01  2.18126780e+00]
 [-2.50291162e-01  2.19793630e+00]
 [-3.01821696e-01  2.21459690e+00]
 [-3.23906210e-01  2.23126530e+00]
 [-3.53352229e-01  2.24792370e+00]
 [-3.68075239e-01  2.26460710e+00]
 [-3.90159753e-01  2.28126750e+00]
 [-3.97521258e-01  2.29793210e+00]
 [-4.19605772e-01  2.31460080e+00]
 [-4.34328782e-01  2.33126740e+00]
 [-4.56413296e-01  2.34794220e+00]
 [-4.85859315e-01  2.36460720e+00]
 [-5.07943829e-01  2.38126710e+00]
 [-5.44751353e-01  2.39793550e+00]
 [-6.03643391e-01  2.41461560e+00]
 [-7.21427468e-01  2.43129040e+00]
 [-8.24488534e-01  2.44790510e+00]
 [-9.12826592e-01  2.46459830e+00]
 [-1.00000000e+00  2.48126870e+00]
 [-1.00000000e+00  2.49793200e+00]
 [-1.00000000e+00  2.51459910e+00]
 [-1.00000000e+00  2.53127080e+00]
 [-1.00000000e+00  2.54792970e+00]
 [-1.00000000e+00  2.56459770e+00]
 [-1.00000000e+00  2.58127670e+00]
 [-1.00000000e+00  2.59793420e+00]
 [-1.00000000e+00  2.61460200e+00]
 [-1.00000000e+00  2.63129070e+00]
 [-1.00000000e+00  2.64749750e+00]
 [-1.00000000e+00  2.66414510e+00]
 [-1.00000000e+00  2.68080850e+00]
 [-1.00000000e+00  2.69743820e+00]
 [-1.00000000e+00  2.71416010e+00]
 [-1.00000000e+00  2.73081620e+00]
 [-1.00000000e+00  2.74746850e+00]
 [-1.00000000e+00  2.76416510e+00]
 [-1.00000000e+00  2.78126010e+00]
 [-1.00000000e+00  2.79793780e+00]
 [-1.00000000e+00  2.81460130e+00]
 [-1.00000000e+00  2.83126130e+00]
 [-1.00000000e+00  2.84794840e+00]
 [-1.00000000e+00  2.86461060e+00]
 [-1.00000000e+00  2.88127020e+00]
 [-1.00000000e+00  2.89793910e+00]
 [-9.93803144e-01  2.91460540e+00]
 [-9.49634116e-01  2.93128630e+00]
 [-9.49634116e-01  2.94794640e+00]
 [-9.20188096e-01  2.96461430e+00]
 [-8.61296058e-01  2.98127750e+00]
 [-7.80319506e-01  2.99794640e+00]
 [-7.21427468e-01  3.01461820e+00]
 [-6.55173925e-01  3.03122510e+00]
 [-6.18366401e-01  3.04795050e+00]
 [-6.03643391e-01  3.06460760e+00]
 [-5.59474363e-01  3.08127660e+00]
 [-4.85859315e-01  3.09794780e+00]
 [-4.12244267e-01  3.11460850e+00]
 [-3.60713734e-01  3.13127970e+00]
 [-3.45990724e-01  3.14794890e+00]
 [-3.31267715e-01  3.16461050e+00]
 [-3.01821696e-01  3.18131540e+00]
 [-2.57652667e-01  3.19794810e+00]
 [-1.98760629e-01  3.21461740e+00]
 [-1.17784076e-01  3.23127670e+00]
 [-4.41690286e-02  3.24794490e+00]
 [-1.47230095e-02  3.26461800e+00]
 [-7.36150477e-03  3.28127680e+00]
 [-7.36150477e-03  3.29795120e+00]
 [-7.36150477e-03  3.31461880e+00]
 [-7.36150477e-03  3.33127900e+00]
 [-7.36150477e-03  3.34795380e+00]
 [ 0.00000000e+00  3.36461630e+00]
 [ 0.00000000e+00  3.38127790e+00]
 [ 2.20845143e-02  3.39795130e+00]
 [ 5.15305334e-02  3.41461920e+00]
 [ 7.36150477e-02  3.43128080e+00]
 [ 8.83380573e-02  3.44795400e+00]
 [ 8.83380573e-02  3.46461630e+00]
 [ 8.83380573e-02  3.48128540e+00]
 [ 8.83380573e-02  3.49794830e+00]
 [ 9.56995620e-02  3.51461520e+00]
 [ 1.03061067e-01  3.53128720e+00]
 [ 1.03061067e-01  3.54796040e+00]
 [ 1.10422572e-01  3.56461920e+00]
 [ 1.10422572e-01  3.58130340e+00]
 [ 1.10422572e-01  3.59795040e+00]
 [ 1.10422572e-01  3.61462040e+00]
 [ 1.10422572e-01  3.63128230e+00]
 [ 1.10422572e-01  3.64796950e+00]
 [ 1.10422572e-01  3.66461770e+00]
 [ 1.10422572e-01  3.68130250e+00]
 [ 1.10422572e-01  3.69795300e+00]
 [ 1.10422572e-01  3.71462410e+00]
 [ 1.10422572e-01  3.73083690e+00]
 [ 1.10422572e-01  3.74749770e+00]
 [ 1.10422572e-01  3.76412440e+00]
 [ 1.10422572e-01  3.78068450e+00]
 [ 1.10422572e-01  3.79735520e+00]
 [ 1.10422572e-01  3.81418110e+00]
 [ 1.10422572e-01  3.83084380e+00]
 [ 1.10422572e-01  3.84750520e+00]
 [ 1.10422572e-01  3.86418440e+00]
 [ 1.10422572e-01  3.88082770e+00]
 [ 1.10422572e-01  3.89746020e+00]
 [ 1.10422572e-01  3.91417230e+00]
 [ 1.10422572e-01  3.93084290e+00]
 [ 1.10422572e-01  3.94750400e+00]
 [ 1.10422572e-01  3.96418880e+00]
 [ 1.10422572e-01  3.98083090e+00]
 [ 1.10422572e-01  3.99745960e+00]
 [ 1.10422572e-01  4.01418140e+00]
 [ 1.10422572e-01  4.03082610e+00]
 [ 1.10422572e-01  4.04749730e+00]
 [ 1.10422572e-01  4.06417500e+00]
 [ 1.10422572e-01  4.08083680e+00]
 [ 1.10422572e-01  4.09751260e+00]
 [ 1.10422572e-01  4.11400770e+00]
 [ 1.10422572e-01  4.13069170e+00]
 [ 1.10422572e-01  4.14746130e+00]
 [ 1.10422572e-01  4.16417010e+00]
 [ 1.10422572e-01  4.18082610e+00]
 [ 1.10422572e-01  4.19746340e+00]
 [ 1.10422572e-01  4.21417660e+00]
 [ 1.10422572e-01  4.23084390e+00]
 [ 1.10422572e-01  4.24749570e+00]
 [ 1.10422572e-01  4.26417750e+00]
 [ 1.10422572e-01  4.28084540e+00]
 [ 1.10422572e-01  4.29751680e+00]
 [ 1.10422572e-01  4.31416190e+00]
 [ 1.10422572e-01  4.33080150e+00]
 [ 1.10422572e-01  4.34750360e+00]
 [ 1.10422572e-01  4.36416800e+00]
 [ 1.10422572e-01  4.38084450e+00]
 [ 1.10422572e-01  4.39750760e+00]
 [ 1.10422572e-01  4.41417260e+00]
 [ 1.10422572e-01  4.43080100e+00]
 [ 1.10422572e-01  4.44749850e+00]
 [ 1.10422572e-01  4.46418680e+00]
 [ 1.10422572e-01  4.48084680e+00]
 [ 1.10422572e-01  4.49745540e+00]
 [ 1.10422572e-01  4.51402350e+00]
 [ 1.10422572e-01  4.53065850e+00]
 [ 1.10422572e-01  4.54749860e+00]
 [ 1.10422572e-01  4.56421690e+00]
 [ 1.10422572e-01  4.58083490e+00]
 [ 1.10422572e-01  4.59752170e+00]
 [ 1.10422572e-01  4.61417070e+00]
 [ 1.10422572e-01  4.63082130e+00]
 [ 1.10422572e-01  4.64751050e+00]
 [ 1.10422572e-01  4.66417100e+00]
 [ 1.10422572e-01  4.68080880e+00]
 [ 1.10422572e-01  4.69750050e+00]
 [ 1.10422572e-01  4.71413510e+00]
 [ 1.10422572e-01  4.73084410e+00]
 [ 1.10422572e-01  4.74746420e+00]
 [ 1.10422572e-01  4.76419080e+00]
 [ 1.10422572e-01  4.78078110e+00]
 [ 1.10422572e-01  4.79747710e+00]
 [ 1.10422572e-01  4.81419510e+00]
 [ 1.10422572e-01  4.83085690e+00]
 [ 1.10422572e-01  4.84751250e+00]
 [ 1.10422572e-01  4.86419760e+00]
 [ 1.10422572e-01  4.88084630e+00]
 [ 1.10422572e-01  4.89752100e+00]
 [ 1.10422572e-01  4.91414460e+00]
 [ 1.10422572e-01  4.93070420e+00]
 [ 1.10422572e-01  4.94751960e+00]
 [ 1.10422572e-01  4.96425560e+00]
 [ 1.10422572e-01  4.98084810e+00]
 [ 1.10422572e-01  4.99752500e+00]
 [ 1.10422572e-01  5.01416120e+00]
 [ 1.10422572e-01  5.03086420e+00]
 [ 1.10422572e-01  5.04752300e+00]
 [ 1.10422572e-01  5.06411850e+00]
 [ 1.10422572e-01  5.08088220e+00]
 [ 1.10422572e-01  5.09744390e+00]
 [ 1.10422572e-01  5.11414720e+00]
 [ 1.10422572e-01  5.13076750e+00]
 [ 1.10422572e-01  5.14748780e+00]
 [ 1.10422572e-01  5.16413260e+00]
 [ 1.10422572e-01  5.18081370e+00]
 [ 1.10422572e-01  5.19747800e+00]
 [ 1.10422572e-01  5.21413460e+00]
 [ 1.10422572e-01  5.23079810e+00]
 [ 1.10422572e-01  5.24748420e+00]
 [ 1.10422572e-01  5.26415930e+00]
 [ 1.10422572e-01  5.28080400e+00]
 [ 1.10422572e-01  5.29750040e+00]
 [ 1.10422572e-01  5.31408670e+00]
 [ 1.10422572e-01  5.33080270e+00]
 [ 1.10422572e-01  5.34739030e+00]
 [ 1.10422572e-01  5.36416480e+00]
 [ 1.10422572e-01  5.38071640e+00]
 [ 1.10422572e-01  5.39748550e+00]
 [ 1.10422572e-01  5.41406700e+00]
 [ 1.10422572e-01  5.43082940e+00]
 [ 1.10422572e-01  5.44739540e+00]
 [ 1.10422572e-01  5.46415980e+00]
 [ 1.10422572e-01  5.48080760e+00]
 [ 1.10422572e-01  5.49748480e+00]
 [ 1.10422572e-01  5.51408540e+00]
 [ 1.10422572e-01  5.53082720e+00]
 [ 1.10422572e-01  5.54749390e+00]
 [ 1.10422572e-01  5.56414100e+00]
 [ 1.10422572e-01  5.58080040e+00]
 [ 1.10422572e-01  5.59739210e+00]
 [ 1.10422572e-01  5.61408340e+00]
 [ 1.10422572e-01  5.63077130e+00]
 [ 1.10422572e-01  5.64752100e+00]
 [ 1.10422572e-01  5.66416580e+00]
 [ 1.10422572e-01  5.68072760e+00]
 [ 1.10422572e-01  5.69750200e+00]
 [ 1.10422572e-01  5.71411440e+00]
 [ 1.10422572e-01  5.73080630e+00]
 [ 1.10422572e-01  5.74739730e+00]
 [ 1.10422572e-01  5.76416370e+00]
 [ 1.10422572e-01  5.78082690e+00]
 [ 1.10422572e-01  5.79750430e+00]
 [ 1.10422572e-01  5.81413940e+00]
 [ 1.10422572e-01  5.83080600e+00]
 [ 1.10422572e-01  5.84749860e+00]
 [ 1.10422572e-01  5.86413300e+00]
 [ 1.10422572e-01  5.88080620e+00]
 [ 1.10422572e-01  5.89750770e+00]
 [ 1.10422572e-01  5.91413910e+00]
 [ 1.10422572e-01  5.93073330e+00]
 [ 1.10422572e-01  5.94749360e+00]]","[[1.40000000e+02 7.00005330e-06]
 [1.40000000e+02 1.45722000e-02]
 [1.40000000e+02 3.12405000e-02]
 [1.40000000e+02 4.79046000e-02]
 [1.40000000e+02 6.45828000e-02]
 [1.40000000e+02 8.12329000e-02]
 [1.40000000e+02 9.78981000e-02]
 [1.40000000e+02 1.14567800e-01]
 [1.40000000e+02 1.31239900e-01]
 [1.40000000e+02 1.47906000e-01]
 [1.40000000e+02 1.64574600e-01]
 [1.40000000e+02 1.81233500e-01]
 [1.40000000e+02 1.97894800e-01]
 [1.40000000e+02 2.14567500e-01]
 [1.40000000e+02 2.31240700e-01]
 [1.40000000e+02 2.47900300e-01]
 [1.40000000e+02 2.64572500e-01]
 [1.40000000e+02 2.80743200e-01]
 [1.40000000e+02 2.97403500e-01]
 [1.40000000e+02 3.14127200e-01]
 [1.40000000e+02 3.30787100e-01]
 [1.40000000e+02 3.47418900e-01]
 [1.40000000e+02 3.64129700e-01]
 [1.40000000e+02 3.80780100e-01]
 [1.40000000e+02 3.97407000e-01]
 [1.40000000e+02 4.14113700e-01]
 [1.40000000e+02 4.30646700e-01]
 [1.42539719e+02 4.47445300e-01]
 [1.45926011e+02 4.64574500e-01]
 [1.52698596e+02 4.81239000e-01]
 [1.58624607e+02 4.97905700e-01]
 [1.62010899e+02 5.14572700e-01]
 [1.66243765e+02 5.31244000e-01]
 [1.71323203e+02 5.47904900e-01]
 [1.83175225e+02 5.64580800e-01]
 [1.88254664e+02 5.81241900e-01]
 [1.89101237e+02 5.97912100e-01]
 [1.90794383e+02 6.14577100e-01]
 [1.90794383e+02 6.31242900e-01]
 [1.91640956e+02 6.47911500e-01]
 [1.94180675e+02 6.64577900e-01]
 [1.97566967e+02 6.81241700e-01]
 [2.00106686e+02 6.97917500e-01]
 [2.02646406e+02 7.14580200e-01]
 [2.03492979e+02 7.31249200e-01]
 [2.06879271e+02 7.47915000e-01]
 [2.09418990e+02 7.64572600e-01]
 [2.11112136e+02 7.81243200e-01]
 [2.16191574e+02 7.97894700e-01]
 [2.19577867e+02 8.14579200e-01]
 [2.22964159e+02 8.31247300e-01]
 [2.29736743e+02 8.47916900e-01]
 [2.33969608e+02 8.64589500e-01]
 [2.38202474e+02 8.81244900e-01]
 [2.42435339e+02 8.97905000e-01]
 [2.44975058e+02 9.14577900e-01]
 [2.46668204e+02 9.31246300e-01]
 [2.48361350e+02 9.47922400e-01]
 [2.53440789e+02 9.64582300e-01]
 [2.54287362e+02 9.81261000e-01]
 [2.55000000e+02 9.97913200e-01]
 [2.55000000e+02 1.01458520e+00]
 [2.55000000e+02 1.03125020e+00]
 [2.55000000e+02 1.04791570e+00]
 [2.55000000e+02 1.06458160e+00]
 [2.55000000e+02 1.08124320e+00]
 [2.55000000e+02 1.09790290e+00]
 [2.55000000e+02 1.11458270e+00]
 [2.55000000e+02 1.13125080e+00]
 [2.55000000e+02 1.14793570e+00]
 [2.55000000e+02 1.16458450e+00]
 [2.55000000e+02 1.18124990e+00]
 [2.55000000e+02 1.19793290e+00]
 [2.55000000e+02 1.21458730e+00]
 [2.55000000e+02 1.23125280e+00]
 [2.55000000e+02 1.24792130e+00]
 [2.55000000e+02 1.26458840e+00]
 [2.55000000e+02 1.28080960e+00]
 [2.55000000e+02 1.29742140e+00]
 [2.55000000e+02 1.31414160e+00]
 [2.55000000e+02 1.33081070e+00]
 [2.55000000e+02 1.34747850e+00]
 [2.54287362e+02 1.36414750e+00]
 [2.50901069e+02 1.38124270e+00]
 [2.48361350e+02 1.39792200e+00]
 [2.46668204e+02 1.41459360e+00]
 [2.45821631e+02 1.43125090e+00]
 [2.42435339e+02 1.44792060e+00]
 [2.40742193e+02 1.46459080e+00]
 [2.37355901e+02 1.48124680e+00]
 [2.33123035e+02 1.49792400e+00]
 [2.28043597e+02 1.51459890e+00]
 [2.24657305e+02 1.53125990e+00]
 [2.20424440e+02 1.54792430e+00]
 [2.11112136e+02 1.56458790e+00]
 [2.08572417e+02 1.58125580e+00]
 [2.01799833e+02 1.59792580e+00]
 [1.95873821e+02 1.61459530e+00]
 [1.91640956e+02 1.63126010e+00]
 [1.85714945e+02 1.64793140e+00]
 [1.81482079e+02 1.66458780e+00]
 [1.76402641e+02 1.68125740e+00]
 [1.71323203e+02 1.69792180e+00]
 [1.67090338e+02 1.71459580e+00]
 [1.60317753e+02 1.73126060e+00]
 [1.53545169e+02 1.74793170e+00]
 [1.39153427e+02 1.76459120e+00]
 [1.30687696e+02 1.78126000e+00]
 [1.23915112e+02 1.79792710e+00]
 [1.20528820e+02 1.81460470e+00]
 [1.16295955e+02 1.83125750e+00]
 [1.15449382e+02 1.84794970e+00]
 [1.11216516e+02 1.86459420e+00]
 [1.06983651e+02 1.88126970e+00]
 [1.00211067e+02 1.89792900e+00]
 [9.68247745e+01 1.91459870e+00]
 [9.17453362e+01 1.93126760e+00]
 [8.83590440e+01 1.94793360e+00]
 [8.32796057e+01 1.96459760e+00]
 [7.90467405e+01 1.98126780e+00]
 [7.56604483e+01 1.99793160e+00]
 [7.05810100e+01 2.01459590e+00]
 [6.71947178e+01 2.03126340e+00]
 [6.12687065e+01 2.04792920e+00]
 [5.78824143e+01 2.06459760e+00]
 [5.44961221e+01 2.08126510e+00]
 [5.19564029e+01 2.09792670e+00]
 [5.11098299e+01 2.11459590e+00]
 [4.94166838e+01 2.13126690e+00]
 [4.85701107e+01 2.14797240e+00]
 [4.34906724e+01 2.16459690e+00]
 [3.92578072e+01 2.18126780e+00]
 [3.75646611e+01 2.19793630e+00]
 [3.50249420e+01 2.21459690e+00]
 [3.50249420e+01 2.23126530e+00]
 [3.50249420e+01 2.24792370e+00]
 [3.50249420e+01 2.26460710e+00]
 [3.24852228e+01 2.28126750e+00]
 [2.99455037e+01 2.29793210e+00]
 [2.74057845e+01 2.31460080e+00]
 [2.65592115e+01 2.33126740e+00]
 [2.65592115e+01 2.34794220e+00]
 [2.50000000e+01 2.36460720e+00]
 [2.50000000e+01 2.38126710e+00]
 [2.50000000e+01 2.39793550e+00]
 [2.50000000e+01 2.41461560e+00]
 [2.50000000e+01 2.43129040e+00]
 [2.50000000e+01 2.44790510e+00]
 [2.50000000e+01 2.46459830e+00]
 [2.50000000e+01 2.48126870e+00]
 [2.50000000e+01 2.49793200e+00]
 [2.50000000e+01 2.51459910e+00]
 [2.50000000e+01 2.53127080e+00]
 [2.50000000e+01 2.54792970e+00]
 [2.50000000e+01 2.56459770e+00]
 [2.50000000e+01 2.58127670e+00]
 [2.50000000e+01 2.59793420e+00]
 [2.50000000e+01 2.61460200e+00]
 [2.50000000e+01 2.63129070e+00]
 [2.50000000e+01 2.64749750e+00]
 [2.50000000e+01 2.66414510e+00]
 [2.50000000e+01 2.68080850e+00]
 [2.50000000e+01 2.69743820e+00]
 [2.50000000e+01 2.71416010e+00]
 [2.50000000e+01 2.73081620e+00]
 [2.50000000e+01 2.74746850e+00]
 [2.99455037e+01 2.76416510e+00]
 [2.99455037e+01 2.78126010e+00]
 [3.50249420e+01 2.79793780e+00]
 [4.01043802e+01 2.81460130e+00]
 [4.60303916e+01 2.83126130e+00]
 [5.61892682e+01 2.84794840e+00]
 [6.46549987e+01 2.86461060e+00]
 [7.14275831e+01 2.88127020e+00]
 [7.48138752e+01 2.89793910e+00]
 [7.82001674e+01 2.91460540e+00]
 [7.82001674e+01 2.93128630e+00]
 [7.98933135e+01 2.94794640e+00]
 [8.24330327e+01 2.96461430e+00]
 [8.24330327e+01 2.98127750e+00]
 [8.58193249e+01 2.99794640e+00]
 [8.83590440e+01 3.01461820e+00]
 [9.00521901e+01 3.03122510e+00]
 [9.08987632e+01 3.04795050e+00]
 [9.34384823e+01 3.06460760e+00]
 [9.51316284e+01 3.08127660e+00]
 [9.59782015e+01 3.09794780e+00]
 [9.76713476e+01 3.11460850e+00]
 [1.00211067e+02 3.13127970e+00]
 [1.02750786e+02 3.14794890e+00]
 [1.09523370e+02 3.16461050e+00]
 [1.12063089e+02 3.18131540e+00]
 [1.12909662e+02 3.19794810e+00]
 [1.14602809e+02 3.21461740e+00]
 [1.15449382e+02 3.23127670e+00]
 [1.16295955e+02 3.24794490e+00]
 [1.17142528e+02 3.26461800e+00]
 [1.18835674e+02 3.28127680e+00]
 [1.23068539e+02 3.29795120e+00]
 [1.26454831e+02 3.31461880e+00]
 [1.29841123e+02 3.33127900e+00]
 [1.32380843e+02 3.34795380e+00]
 [1.34073989e+02 3.36461630e+00]
 [1.34073989e+02 3.38127790e+00]
 [1.34073989e+02 3.39795130e+00]
 [1.34073989e+02 3.41461920e+00]
 [1.34920562e+02 3.43128080e+00]
 [1.35767135e+02 3.44795400e+00]
 [1.35767135e+02 3.46461630e+00]
 [1.35767135e+02 3.48128540e+00]
 [1.35767135e+02 3.49794830e+00]
 [1.35767135e+02 3.51461520e+00]
 [1.35767135e+02 3.53128720e+00]
 [1.35767135e+02 3.54796040e+00]
 [1.35767135e+02 3.56461920e+00]
 [1.35767135e+02 3.58130340e+00]
 [1.35767135e+02 3.59795040e+00]
 [1.35767135e+02 3.61462040e+00]
 [1.35767135e+02 3.63128230e+00]
 [1.35767135e+02 3.64796950e+00]
 [1.35767135e+02 3.66461770e+00]
 [1.35767135e+02 3.68130250e+00]
 [1.35767135e+02 3.69795300e+00]
 [1.35767135e+02 3.71462410e+00]
 [1.35767135e+02 3.73083690e+00]
 [1.35767135e+02 3.74749770e+00]
 [1.35767135e+02 3.76412440e+00]
 [1.35767135e+02 3.78068450e+00]
 [1.35767135e+02 3.79735520e+00]
 [1.35767135e+02 3.81418110e+00]
 [1.35767135e+02 3.83084380e+00]
 [1.35767135e+02 3.84750520e+00]
 [1.35767135e+02 3.86418440e+00]
 [1.35767135e+02 3.88082770e+00]
 [1.35767135e+02 3.89746020e+00]
 [1.35767135e+02 3.91417230e+00]
 [1.35767135e+02 3.93084290e+00]
 [1.35767135e+02 3.94750400e+00]
 [1.35767135e+02 3.96418880e+00]
 [1.35767135e+02 3.98083090e+00]
 [1.35767135e+02 3.99745960e+00]
 [1.35767135e+02 4.01418140e+00]
 [1.35767135e+02 4.03082610e+00]
 [1.35767135e+02 4.04749730e+00]
 [1.35767135e+02 4.06417500e+00]
 [1.35767135e+02 4.08083680e+00]
 [1.35767135e+02 4.09751260e+00]
 [1.35767135e+02 4.11400770e+00]
 [1.35767135e+02 4.13069170e+00]
 [1.35767135e+02 4.14746130e+00]
 [1.35767135e+02 4.16417010e+00]
 [1.35767135e+02 4.18082610e+00]
 [1.35767135e+02 4.19746340e+00]
 [1.35767135e+02 4.21417660e+00]
 [1.35767135e+02 4.23084390e+00]
 [1.35767135e+02 4.24749570e+00]
 [1.35767135e+02 4.26417750e+00]
 [1.35767135e+02 4.28084540e+00]
 [1.35767135e+02 4.29751680e+00]
 [1.35767135e+02 4.31416190e+00]
 [1.35767135e+02 4.33080150e+00]
 [1.35767135e+02 4.34750360e+00]
 [1.35767135e+02 4.36416800e+00]
 [1.35767135e+02 4.38084450e+00]
 [1.35767135e+02 4.39750760e+00]
 [1.35767135e+02 4.41417260e+00]
 [1.35767135e+02 4.43080100e+00]
 [1.35767135e+02 4.44749850e+00]
 [1.35767135e+02 4.46418680e+00]
 [1.35767135e+02 4.48084680e+00]
 [1.35767135e+02 4.49745540e+00]
 [1.35767135e+02 4.51402350e+00]
 [1.35767135e+02 4.53065850e+00]
 [1.35767135e+02 4.54749860e+00]
 [1.35767135e+02 4.56421690e+00]
 [1.35767135e+02 4.58083490e+00]
 [1.35767135e+02 4.59752170e+00]
 [1.35767135e+02 4.61417070e+00]
 [1.35767135e+02 4.63082130e+00]
 [1.35767135e+02 4.64751050e+00]
 [1.35767135e+02 4.66417100e+00]
 [1.35767135e+02 4.68080880e+00]
 [1.35767135e+02 4.69750050e+00]
 [1.35767135e+02 4.71413510e+00]
 [1.35767135e+02 4.73084410e+00]
 [1.35767135e+02 4.74746420e+00]
 [1.35767135e+02 4.76419080e+00]
 [1.35767135e+02 4.78078110e+00]
 [1.35767135e+02 4.79747710e+00]
 [1.35767135e+02 4.81419510e+00]
 [1.35767135e+02 4.83085690e+00]
 [1.35767135e+02 4.84751250e+00]
 [1.35767135e+02 4.86419760e+00]
 [1.35767135e+02 4.88084630e+00]
 [1.35767135e+02 4.89752100e+00]
 [1.35767135e+02 4.91414460e+00]
 [1.35767135e+02 4.93070420e+00]
 [1.35767135e+02 4.94751960e+00]
 [1.35767135e+02 4.96425560e+00]
 [1.35767135e+02 4.98084810e+00]
 [1.35767135e+02 4.99752500e+00]
 [1.35767135e+02 5.01416120e+00]
 [1.35767135e+02 5.03086420e+00]
 [1.35767135e+02 5.04752300e+00]
 [1.35767135e+02 5.06411850e+00]
 [1.35767135e+02 5.08088220e+00]
 [1.35767135e+02 5.09744390e+00]
 [1.35767135e+02 5.11414720e+00]
 [1.35767135e+02 5.13076750e+00]
 [1.35767135e+02 5.14748780e+00]
 [1.35767135e+02 5.16413260e+00]
 [1.35767135e+02 5.18081370e+00]
 [1.35767135e+02 5.19747800e+00]
 [1.35767135e+02 5.21413460e+00]
 [1.35767135e+02 5.23079810e+00]
 [1.35767135e+02 5.24748420e+00]
 [1.35767135e+02 5.26415930e+00]
 [1.35767135e+02 5.28080400e+00]
 [1.35767135e+02 5.29750040e+00]
 [1.35767135e+02 5.31408670e+00]
 [1.35767135e+02 5.33080270e+00]
 [1.35767135e+02 5.34739030e+00]
 [1.35767135e+02 5.36416480e+00]
 [1.35767135e+02 5.38071640e+00]
 [1.35767135e+02 5.39748550e+00]
 [1.35767135e+02 5.41406700e+00]
 [1.35767135e+02 5.43082940e+00]
 [1.35767135e+02 5.44739540e+00]
 [1.35767135e+02 5.46415980e+00]
 [1.35767135e+02 5.48080760e+00]
 [1.35767135e+02 5.49748480e+00]
 [1.35767135e+02 5.51408540e+00]
 [1.35767135e+02 5.53082720e+00]
 [1.35767135e+02 5.54749390e+00]
 [1.35767135e+02 5.56414100e+00]
 [1.35767135e+02 5.58080040e+00]
 [1.35767135e+02 5.59739210e+00]
 [1.35767135e+02 5.61408340e+00]
 [1.35767135e+02 5.63077130e+00]
 [1.35767135e+02 5.64752100e+00]
 [1.35767135e+02 5.66416580e+00]
 [1.35767135e+02 5.68072760e+00]
 [1.35767135e+02 5.69750200e+00]
 [1.35767135e+02 5.71411440e+00]
 [1.35767135e+02 5.73080630e+00]
 [1.35767135e+02 5.74739730e+00]
 [1.35767135e+02 5.76416370e+00]
 [1.35767135e+02 5.78082690e+00]
 [1.35767135e+02 5.79750430e+00]
 [1.35767135e+02 5.81413940e+00]
 [1.35767135e+02 5.83080600e+00]
 [1.35767135e+02 5.84749860e+00]
 [1.35767135e+02 5.86413300e+00]
 [1.35767135e+02 5.88080620e+00]
 [1.35767135e+02 5.89750770e+00]
 [1.35767135e+02 5.91413910e+00]
 [1.35767135e+02 5.93073330e+00]
 [1.35767135e+02 5.94749360e+00]]","[[ 0.00000000e+00  7.00005330e-06]
 [ 0.00000000e+00  1.45722000e-02]
 [ 0.00000000e+00  3.12405000e-02]
 [ 0.00000000e+00  4.79046000e-02]
 [ 0.00000000e+00  6.45828000e-02]
 [ 0.00000000e+00  8.12329000e-02]
 [ 0.00000000e+00  9.78981000e-02]
 [ 0.00000000e+00  1.14567800e-01]
 [ 0.00000000e+00  1.31239900e-01]
 [ 0.00000000e+00  1.47906000e-01]
 [ 0.00000000e+00  1.64574600e-01]
 [ 0.00000000e+00  1.81233500e-01]
 [ 0.00000000e+00  1.97894800e-01]
 [ 0.00000000e+00  2.14567500e-01]
 [ 0.00000000e+00  2.31240700e-01]
 [ 0.00000000e+00  2.47900300e-01]
 [ 0.00000000e+00  2.64572500e-01]
 [ 0.00000000e+00  2.80743200e-01]
 [ 0.00000000e+00  2.97403500e-01]
 [ 0.00000000e+00  3.14127200e-01]
 [ 0.00000000e+00  3.30787100e-01]
 [ 0.00000000e+00  3.47418900e-01]
 [ 0.00000000e+00  3.64129700e-01]
 [ 0.00000000e+00  3.80780100e-01]
 [ 0.00000000e+00  3.97407000e-01]
 [ 0.00000000e+00  4.14113700e-01]
 [ 0.00000000e+00  4.30646700e-01]
 [ 2.20845143e-02  4.47445300e-01]
 [ 5.15305334e-02  4.64574500e-01]
 [ 1.10422572e-01  4.81239000e-01]
 [ 1.61953105e-01  4.97905700e-01]
 [ 1.91399124e-01  5.14572700e-01]
 [ 2.28206648e-01  5.31244000e-01]
 [ 2.72375677e-01  5.47904900e-01]
 [ 3.75436743e-01  5.64580800e-01]
 [ 4.19605772e-01  5.81241900e-01]
 [ 4.26967277e-01  5.97912100e-01]
 [ 4.41690286e-01  6.14577100e-01]
 [ 4.41690286e-01  6.31242900e-01]
 [ 4.49051791e-01  6.47911500e-01]
 [ 4.71136305e-01  6.64577900e-01]
 [ 5.00582324e-01  6.81241700e-01]
 [ 5.22666839e-01  6.97917500e-01]
 [ 5.44751353e-01  7.14580200e-01]
 [ 5.52112858e-01  7.31249200e-01]
 [ 5.81558877e-01  7.47915000e-01]
 [ 6.03643391e-01  7.64572600e-01]
 [ 6.18366401e-01  7.81243200e-01]
 [ 6.62535429e-01  7.97894700e-01]
 [ 6.91981449e-01  8.14579200e-01]
 [ 7.21427468e-01  8.31247300e-01]
 [ 7.80319506e-01  8.47916900e-01]
 [ 8.17127030e-01  8.64589500e-01]
 [ 8.53934554e-01  8.81244900e-01]
 [ 8.90742077e-01  8.97905000e-01]
 [ 9.12826592e-01  9.14577900e-01]
 [ 9.27549601e-01  9.31246300e-01]
 [ 9.42272611e-01  9.47922400e-01]
 [ 9.86441639e-01  9.64582300e-01]
 [ 9.93803144e-01  9.81261000e-01]
 [ 1.00000000e+00  9.97913200e-01]
 [ 1.00000000e+00  1.01458520e+00]
 [ 1.00000000e+00  1.03125020e+00]
 [ 1.00000000e+00  1.04791570e+00]
 [ 1.00000000e+00  1.06458160e+00]
 [ 1.00000000e+00  1.08124320e+00]
 [ 1.00000000e+00  1.09790290e+00]
 [ 1.00000000e+00  1.11458270e+00]
 [ 1.00000000e+00  1.13125080e+00]
 [ 1.00000000e+00  1.14793570e+00]
 [ 1.00000000e+00  1.16458450e+00]
 [ 1.00000000e+00  1.18124990e+00]
 [ 1.00000000e+00  1.19793290e+00]
 [ 1.00000000e+00  1.21458730e+00]
 [ 1.00000000e+00  1.23125280e+00]
 [ 1.00000000e+00  1.24792130e+00]
 [ 1.00000000e+00  1.26458840e+00]
 [ 1.00000000e+00  1.28080960e+00]
 [ 1.00000000e+00  1.29742140e+00]
 [ 1.00000000e+00  1.31414160e+00]
 [ 1.00000000e+00  1.33081070e+00]
 [ 1.00000000e+00  1.34747850e+00]
 [ 9.93803144e-01  1.36414750e+00]
 [ 9.64357125e-01  1.38124270e+00]
 [ 9.42272611e-01  1.39792200e+00]
 [ 9.27549601e-01  1.41459360e+00]
 [ 9.20188096e-01  1.43125090e+00]
 [ 8.90742077e-01  1.44792060e+00]
 [ 8.76019068e-01  1.46459080e+00]
 [ 8.46573049e-01  1.48124680e+00]
 [ 8.09765525e-01  1.49792400e+00]
 [ 7.65596496e-01  1.51459890e+00]
 [ 7.36150477e-01  1.53125990e+00]
 [ 6.99342953e-01  1.54792430e+00]
 [ 6.18366401e-01  1.56458790e+00]
 [ 5.96281887e-01  1.58125580e+00]
 [ 5.37389848e-01  1.59792580e+00]
 [ 4.85859315e-01  1.61459530e+00]
 [ 4.49051791e-01  1.63126010e+00]
 [ 3.97521258e-01  1.64793140e+00]
 [ 3.60713734e-01  1.66458780e+00]
 [ 3.16544705e-01  1.68125740e+00]
 [ 2.72375677e-01  1.69792180e+00]
 [ 2.35568153e-01  1.71459580e+00]
 [ 1.76676115e-01  1.73126060e+00]
 [ 1.17784076e-01  1.74793170e+00]
 [-7.36150477e-03  1.76459120e+00]
 [-8.09765525e-02  1.78126000e+00]
 [-1.39868591e-01  1.79792710e+00]
 [-1.69314610e-01  1.81460470e+00]
 [-2.06122134e-01  1.83125750e+00]
 [-2.13483638e-01  1.84794970e+00]
 [-2.50291162e-01  1.86459420e+00]
 [-2.87098686e-01  1.88126970e+00]
 [-3.45990724e-01  1.89792900e+00]
 [-3.75436743e-01  1.91459870e+00]
 [-4.19605772e-01  1.93126760e+00]
 [-4.49051791e-01  1.94793360e+00]
 [-4.93220820e-01  1.96459760e+00]
 [-5.30028344e-01  1.98126780e+00]
 [-5.59474363e-01  1.99793160e+00]
 [-6.03643391e-01  2.01459590e+00]
 [-6.33089410e-01  2.03126340e+00]
 [-6.84619944e-01  2.04792920e+00]
 [-7.14065963e-01  2.06459760e+00]
 [-7.43511982e-01  2.08126510e+00]
 [-7.65596496e-01  2.09792670e+00]
 [-7.72958001e-01  2.11459590e+00]
 [-7.87681011e-01  2.13126690e+00]
 [-7.95042515e-01  2.14797240e+00]
 [-8.39211544e-01  2.16459690e+00]
 [-8.76019068e-01  2.18126780e+00]
 [-8.90742077e-01  2.19793630e+00]
 [-9.12826592e-01  2.21459690e+00]
 [-9.12826592e-01  2.23126530e+00]
 [-9.12826592e-01  2.24792370e+00]
 [-9.12826592e-01  2.26460710e+00]
 [-9.34911106e-01  2.28126750e+00]
 [-9.56995620e-01  2.29793210e+00]
 [-9.79080135e-01  2.31460080e+00]
 [-9.86441639e-01  2.33126740e+00]
 [-9.86441639e-01  2.34794220e+00]
 [-1.00000000e+00  2.36460720e+00]
 [-1.00000000e+00  2.38126710e+00]
 [-1.00000000e+00  2.39793550e+00]
 [-1.00000000e+00  2.41461560e+00]
 [-1.00000000e+00  2.43129040e+00]
 [-1.00000000e+00  2.44790510e+00]
 [-1.00000000e+00  2.46459830e+00]
 [-1.00000000e+00  2.48126870e+00]
 [-1.00000000e+00  2.49793200e+00]
 [-1.00000000e+00  2.51459910e+00]
 [-1.00000000e+00  2.53127080e+00]
 [-1.00000000e+00  2.54792970e+00]
 [-1.00000000e+00  2.56459770e+00]
 [-1.00000000e+00  2.58127670e+00]
 [-1.00000000e+00  2.59793420e+00]
 [-1.00000000e+00  2.61460200e+00]
 [-1.00000000e+00  2.63129070e+00]
 [-1.00000000e+00  2.64749750e+00]
 [-1.00000000e+00  2.66414510e+00]
 [-1.00000000e+00  2.68080850e+00]
 [-1.00000000e+00  2.69743820e+00]
 [-1.00000000e+00  2.71416010e+00]
 [-1.00000000e+00  2.73081620e+00]
 [-1.00000000e+00  2.74746850e+00]
 [-9.56995620e-01  2.76416510e+00]
 [-9.56995620e-01  2.78126010e+00]
 [-9.12826592e-01  2.79793780e+00]
 [-8.68657563e-01  2.81460130e+00]
 [-8.17127030e-01  2.83126130e+00]
 [-7.28788972e-01  2.84794840e+00]
 [-6.55173925e-01  2.86461060e+00]
 [-5.96281887e-01  2.88127020e+00]
 [-5.66835867e-01  2.89793910e+00]
 [-5.37389848e-01  2.91460540e+00]
 [-5.37389848e-01  2.93128630e+00]
 [-5.22666839e-01  2.94794640e+00]
 [-5.00582324e-01  2.96461430e+00]
 [-5.00582324e-01  2.98127750e+00]
 [-4.71136305e-01  2.99794640e+00]
 [-4.49051791e-01  3.01461820e+00]
 [-4.34328782e-01  3.03122510e+00]
 [-4.26967277e-01  3.04795050e+00]
 [-4.04882762e-01  3.06460760e+00]
 [-3.90159753e-01  3.08127660e+00]
 [-3.82798248e-01  3.09794780e+00]
 [-3.68075239e-01  3.11460850e+00]
 [-3.45990724e-01  3.13127970e+00]
 [-3.23906210e-01  3.14794890e+00]
 [-2.65014172e-01  3.16461050e+00]
 [-2.42929657e-01  3.18131540e+00]
 [-2.35568153e-01  3.19794810e+00]
 [-2.20845143e-01  3.21461740e+00]
 [-2.13483638e-01  3.23127670e+00]
 [-2.06122134e-01  3.24794490e+00]
 [-1.98760629e-01  3.26461800e+00]
 [-1.84037619e-01  3.28127680e+00]
 [-1.47230095e-01  3.29795120e+00]
 [-1.17784076e-01  3.31461880e+00]
 [-8.83380573e-02  3.33127900e+00]
 [-6.62535429e-02  3.34795380e+00]
 [-5.15305334e-02  3.36461630e+00]
 [-5.15305334e-02  3.38127790e+00]
 [-5.15305334e-02  3.39795130e+00]
 [-5.15305334e-02  3.41461920e+00]
 [-4.41690286e-02  3.43128080e+00]
 [-3.68075239e-02  3.44795400e+00]
 [-3.68075239e-02  3.46461630e+00]
 [-3.68075239e-02  3.48128540e+00]
 [-3.68075239e-02  3.49794830e+00]
 [-3.68075239e-02  3.51461520e+00]
 [-3.68075239e-02  3.53128720e+00]
 [-3.68075239e-02  3.54796040e+00]
 [-3.68075239e-02  3.56461920e+00]
 [-3.68075239e-02  3.58130340e+00]
 [-3.68075239e-02  3.59795040e+00]
 [-3.68075239e-02  3.61462040e+00]
 [-3.68075239e-02  3.63128230e+00]
 [-3.68075239e-02  3.64796950e+00]
 [-3.68075239e-02  3.66461770e+00]
 [-3.68075239e-02  3.68130250e+00]
 [-3.68075239e-02  3.69795300e+00]
 [-3.68075239e-02  3.71462410e+00]
 [-3.68075239e-02  3.73083690e+00]
 [-3.68075239e-02  3.74749770e+00]
 [-3.68075239e-02  3.76412440e+00]
 [-3.68075239e-02  3.78068450e+00]
 [-3.68075239e-02  3.79735520e+00]
 [-3.68075239e-02  3.81418110e+00]
 [-3.68075239e-02  3.83084380e+00]
 [-3.68075239e-02  3.84750520e+00]
 [-3.68075239e-02  3.86418440e+00]
 [-3.68075239e-02  3.88082770e+00]
 [-3.68075239e-02  3.89746020e+00]
 [-3.68075239e-02  3.91417230e+00]
 [-3.68075239e-02  3.93084290e+00]
 [-3.68075239e-02  3.94750400e+00]
 [-3.68075239e-02  3.96418880e+00]
 [-3.68075239e-02  3.98083090e+00]
 [-3.68075239e-02  3.99745960e+00]
 [-3.68075239e-02  4.01418140e+00]
 [-3.68075239e-02  4.03082610e+00]
 [-3.68075239e-02  4.04749730e+00]
 [-3.68075239e-02  4.06417500e+00]
 [-3.68075239e-02  4.08083680e+00]
 [-3.68075239e-02  4.09751260e+00]
 [-3.68075239e-02  4.11400770e+00]
 [-3.68075239e-02  4.13069170e+00]
 [-3.68075239e-02  4.14746130e+00]
 [-3.68075239e-02  4.16417010e+00]
 [-3.68075239e-02  4.18082610e+00]
 [-3.68075239e-02  4.19746340e+00]
 [-3.68075239e-02  4.21417660e+00]
 [-3.68075239e-02  4.23084390e+00]
 [-3.68075239e-02  4.24749570e+00]
 [-3.68075239e-02  4.26417750e+00]
 [-3.68075239e-02  4.28084540e+00]
 [-3.68075239e-02  4.29751680e+00]
 [-3.68075239e-02  4.31416190e+00]
 [-3.68075239e-02  4.33080150e+00]
 [-3.68075239e-02  4.34750360e+00]
 [-3.68075239e-02  4.36416800e+00]
 [-3.68075239e-02  4.38084450e+00]
 [-3.68075239e-02  4.39750760e+00]
 [-3.68075239e-02  4.41417260e+00]
 [-3.68075239e-02  4.43080100e+00]
 [-3.68075239e-02  4.44749850e+00]
 [-3.68075239e-02  4.46418680e+00]
 [-3.68075239e-02  4.48084680e+00]
 [-3.68075239e-02  4.49745540e+00]
 [-3.68075239e-02  4.51402350e+00]
 [-3.68075239e-02  4.53065850e+00]
 [-3.68075239e-02  4.54749860e+00]
 [-3.68075239e-02  4.56421690e+00]
 [-3.68075239e-02  4.58083490e+00]
 [-3.68075239e-02  4.59752170e+00]
 [-3.68075239e-02  4.61417070e+00]
 [-3.68075239e-02  4.63082130e+00]
 [-3.68075239e-02  4.64751050e+00]
 [-3.68075239e-02  4.66417100e+00]
 [-3.68075239e-02  4.68080880e+00]
 [-3.68075239e-02  4.69750050e+00]
 [-3.68075239e-02  4.71413510e+00]
 [-3.68075239e-02  4.73084410e+00]
 [-3.68075239e-02  4.74746420e+00]
 [-3.68075239e-02  4.76419080e+00]
 [-3.68075239e-02  4.78078110e+00]
 [-3.68075239e-02  4.79747710e+00]
 [-3.68075239e-02  4.81419510e+00]
 [-3.68075239e-02  4.83085690e+00]
 [-3.68075239e-02  4.84751250e+00]
 [-3.68075239e-02  4.86419760e+00]
 [-3.68075239e-02  4.88084630e+00]
 [-3.68075239e-02  4.89752100e+00]
 [-3.68075239e-02  4.91414460e+00]
 [-3.68075239e-02  4.93070420e+00]
 [-3.68075239e-02  4.94751960e+00]
 [-3.68075239e-02  4.96425560e+00]
 [-3.68075239e-02  4.98084810e+00]
 [-3.68075239e-02  4.99752500e+00]
 [-3.68075239e-02  5.01416120e+00]
 [-3.68075239e-02  5.03086420e+00]
 [-3.68075239e-02  5.04752300e+00]
 [-3.68075239e-02  5.06411850e+00]
 [-3.68075239e-02  5.08088220e+00]
 [-3.68075239e-02  5.09744390e+00]
 [-3.68075239e-02  5.11414720e+00]
 [-3.68075239e-02  5.13076750e+00]
 [-3.68075239e-02  5.14748780e+00]
 [-3.68075239e-02  5.16413260e+00]
 [-3.68075239e-02  5.18081370e+00]
 [-3.68075239e-02  5.19747800e+00]
 [-3.68075239e-02  5.21413460e+00]
 [-3.68075239e-02  5.23079810e+00]
 [-3.68075239e-02  5.24748420e+00]
 [-3.68075239e-02  5.26415930e+00]
 [-3.68075239e-02  5.28080400e+00]
 [-3.68075239e-02  5.29750040e+00]
 [-3.68075239e-02  5.31408670e+00]
 [-3.68075239e-02  5.33080270e+00]
 [-3.68075239e-02  5.34739030e+00]
 [-3.68075239e-02  5.36416480e+00]
 [-3.68075239e-02  5.38071640e+00]
 [-3.68075239e-02  5.39748550e+00]
 [-3.68075239e-02  5.41406700e+00]
 [-3.68075239e-02  5.43082940e+00]
 [-3.68075239e-02  5.44739540e+00]
 [-3.68075239e-02  5.46415980e+00]
 [-3.68075239e-02  5.48080760e+00]
 [-3.68075239e-02  5.49748480e+00]
 [-3.68075239e-02  5.51408540e+00]
 [-3.68075239e-02  5.53082720e+00]
 [-3.68075239e-02  5.54749390e+00]
 [-3.68075239e-02  5.56414100e+00]
 [-3.68075239e-02  5.58080040e+00]
 [-3.68075239e-02  5.59739210e+00]
 [-3.68075239e-02  5.61408340e+00]
 [-3.68075239e-02  5.63077130e+00]
 [-3.68075239e-02  5.64752100e+00]
 [-3.68075239e-02  5.66416580e+00]
 [-3.68075239e-02  5.68072760e+00]
 [-3.68075239e-02  5.69750200e+00]
 [-3.68075239e-02  5.71411440e+00]
 [-3.68075239e-02  5.73080630e+00]
 [-3.68075239e-02  5.74739730e+00]
 [-3.68075239e-02  5.76416370e+00]
 [-3.68075239e-02  5.78082690e+00]
 [-3.68075239e-02  5.79750430e+00]
 [-3.68075239e-02  5.81413940e+00]
 [-3.68075239e-02  5.83080600e+00]
 [-3.68075239e-02  5.84749860e+00]
 [-3.68075239e-02  5.86413300e+00]
 [-3.68075239e-02  5.88080620e+00]
 [-3.68075239e-02  5.89750770e+00]
 [-3.68075239e-02  5.91413910e+00]
 [-3.68075239e-02  5.93073330e+00]
 [-3.68075239e-02  5.94749360e+00]]",30,A,non_immersive,No,8,2024-05-03_10h49.30.020,Experiment_VR_non_immersive,59.961276991679256,
1,../amsterdam_dynamic_facial_expression_set/F01-Disgust-Face Forward.mp4,arousal,right,HV-LA,direct,0,,,,,0,1,1,0,"[[ 0.          0.0100396 ]
 [ 0.          0.0267043 ]
 [ 0.          0.043603  ]
 [ 0.          0.0603434 ]
 [ 0.          0.0764463 ]
 [ 0.          0.0944325 ]
 [ 0.          0.1098594 ]
 [ 0.          0.1275515 ]
 [ 0.          0.1432124 ]
 [ 0.          0.1611823 ]
 [ 0.          0.1767094 ]
 [ 0.          0.1942577 ]
 [ 0.          0.2099937 ]
 [ 0.          0.2277895 ]
 [ 0.          0.2432622 ]
 [ 0.          0.2609862 ]
 [ 0.          0.2765819 ]
 [ 0.          0.2941979 ]
 [ 0.          0.3098146 ]
 [ 0.          0.3273834 ]
 [ 0.          0.3431627 ]
 [ 0.          0.3607359 ]
 [ 0.          0.3765294 ]
 [ 0.          0.3941117 ]
 [ 0.          0.4098502 ]
 [ 0.          0.4274115 ]
 [ 0.          0.4431942 ]
 [ 0.          0.4604892 ]
 [ 0.          0.4765148 ]
 [ 0.          0.4941361 ]
 [ 0.          0.5098464 ]
 [ 0.          0.5273187 ]
 [ 0.          0.5431851 ]
 [ 0.02208451  0.5608818 ]
 [ 0.02208451  0.5765664 ]
 [ 0.02944602  0.5941238 ]
 [ 0.02944602  0.6097423 ]
 [ 0.02944602  0.6273823 ]
 [ 0.04416903  0.6433609 ]
 [ 0.05153053  0.660883  ]
 [ 0.08097655  0.67671   ]
 [ 0.12514558  0.6945484 ]
 [ 0.16931461  0.7098845 ]
 [ 0.20612213  0.7278696 ]
 [ 0.21348364  0.7432324 ]
 [ 0.21348364  0.7607488 ]
 [ 0.22084514  0.7767357 ]
 [ 0.22820665  0.7942053 ]
 [ 0.24292966  0.8098775 ]
 [ 0.25029116  0.8275516 ]
 [ 0.27237568  0.8433252 ]
 [ 0.28709869  0.8612026 ]
 [ 0.32390621  0.8767123 ]
 [ 0.37543674  0.8942901 ]
 [ 0.41960577  0.9103018 ]
 [ 0.47113631  0.927569  ]
 [ 0.50794383  0.9437263 ]
 [ 0.55947436  0.9610182 ]
 [ 0.58892038  0.9769727 ]
 [ 0.60364339  0.9943137 ]
 [ 0.60364339  1.0098251 ]
 [ 0.60364339  1.0273627 ]
 [ 0.60364339  1.0430162 ]
 [ 0.6183664   1.0609184 ]
 [ 0.62572791  1.076722  ]
 [ 0.64781242  1.0943062 ]
 [ 0.66989693  1.1100142 ]
 [ 0.70670446  1.1278971 ]
 [ 0.74351198  1.1433421 ]
 [ 0.78031951  1.1609343 ]
 [ 0.80976552  1.1770319 ]
 [ 0.86865756  1.1941461 ]
 [ 0.94963412  1.2101804 ]
 [ 1.          1.2275727 ]
 [ 1.          1.2433014 ]
 [ 1.          1.2609185 ]
 [ 1.          1.2766871 ]
 [ 1.          1.2942918 ]
 [ 1.          1.3099901 ]
 [ 1.          1.3274238 ]
 [ 1.          1.3431799 ]
 [ 1.          1.3609714 ]
 [ 1.          1.3765734 ]
 [ 1.          1.3941585 ]
 [ 1.          1.4096877 ]
 [ 1.          1.4274602 ]
 [ 1.          1.4431489 ]
 [ 1.          1.4607427 ]
 [ 1.          1.4765168 ]
 [ 1.          1.4942677 ]
 [ 1.          1.5098356 ]
 [ 1.          1.527626  ]
 [ 1.          1.5431643 ]
 [ 1.          1.5606816 ]
 [ 1.          1.5765393 ]
 [ 1.          1.594006  ]
 [ 1.          1.609817  ]
 [ 1.          1.6273037 ]
 [ 1.          1.64316   ]
 [ 1.          1.6605992 ]
 [ 1.          1.676471  ]
 [ 1.          1.6942299 ]
 [ 1.          1.7100202 ]
 [ 0.99380314  1.7276082 ]
 [ 0.9201881   1.7436386 ]
 [ 0.89074208  1.7610844 ]
 [ 0.87601907  1.7767068 ]
 [ 0.87601907  1.79413   ]
 [ 0.85393455  1.8098954 ]
 [ 0.82448853  1.8278499 ]
 [ 0.78768101  1.8433459 ]
 [ 0.72878897  1.8608992 ]
 [ 0.66253543  1.8770127 ]
 [ 0.62572791  1.8942834 ]
 [ 0.60364339  1.9102933 ]
 [ 0.58155888  1.9275524 ]
 [ 0.54475135  1.943333  ]
 [ 0.50058232  1.9612253 ]
 [ 0.4564133   1.9767219 ]
 [ 0.41224427  1.9942668 ]
 [ 0.36807524  2.0102464 ]
 [ 0.33126771  2.0275539 ]
 [ 0.3018217   2.0435527 ]
 [ 0.29446019  2.0611083 ]
 [ 0.27237568  2.0766957 ]
 [ 0.24292966  2.0940822 ]
 [ 0.20612213  2.1102426 ]
 [ 0.1472301   2.1274741 ]
 [ 0.08097655  2.1437087 ]
 [-0.0073615   2.1609015 ]
 [-0.04416903  2.1770286 ]
 [-0.08833806  2.1942037 ]
 [-0.12514558  2.2102056 ]
 [-0.17667611  2.2275448 ]
 [-0.22820665  2.2435222 ]
 [-0.26501417  2.2610017 ]
 [-0.28709869  2.276983  ]
 [-0.3091832   2.2942828 ]
 [-0.34599072  2.3100302 ]
 [-0.36807524  2.327655  ]
 [-0.41224427  2.3436752 ]
 [-0.43432878  2.3610249 ]
 [-0.4637748   2.3768047 ]
 [-0.49322082  2.3946182 ]
 [-0.51530533  2.4099309 ]
 [-0.55211286  2.42738   ]
 [-0.6110049   2.4435456 ]
 [-0.66989693  2.4608606 ]
 [-0.73615048  2.4770362 ]
 [-0.80240402  2.4942418 ]
 [-0.85393455  2.510316  ]
 [-0.90546509  2.5274761 ]
 [-0.97171863  2.543728  ]
 [-1.          2.5613111 ]
 [-1.          2.576768  ]
 [-1.          2.5942284 ]
 [-1.          2.6099063 ]
 [-1.          2.6274803 ]
 [-1.          2.6432351 ]
 [-1.          2.6608071 ]
 [-1.          2.6765645 ]
 [-1.          2.6942354 ]
 [-1.          2.7098334 ]
 [-1.          2.7273962 ]
 [-1.          2.7433212 ]
 [-1.          2.7606801 ]
 [-1.          2.7768472 ]
 [-1.          2.7939963 ]
 [-1.          2.8097032 ]
 [-1.          2.8272501 ]
 [-1.          2.8432137 ]
 [-1.          2.8607861 ]
 [-1.          2.8765451 ]
 [-1.          2.8941882 ]
 [-1.          2.9098709 ]
 [-1.          2.9274626 ]
 [-1.          2.9431979 ]
 [-1.          2.9607397 ]
 [-1.          2.9767181 ]
 [-1.          2.9941557 ]
 [-1.          3.0099432 ]
 [-0.98644164  3.0275959 ]
 [-0.90546509  3.0433609 ]
 [-0.80976552  3.0612141 ]
 [-0.73615048  3.0770382 ]
 [-0.65517392  3.0945761 ]
 [-0.62572791  3.1100737 ]
 [-0.60364339  3.1278675 ]
 [-0.58155888  3.1433761 ]
 [-0.52266684  3.1609855 ]
 [-0.39015975  3.1770799 ]
 [-0.23556815  3.1943997 ]
 [-0.08833806  3.2101796 ]
 [ 0.04416903  3.2277581 ]
 [ 0.08833806  3.2436743 ]
 [ 0.09569956  3.261051  ]
 [ 0.09569956  3.2765506 ]
 [ 0.11042257  3.294249  ]
 [ 0.12514558  3.3100168 ]
 [ 0.1472301   3.3275651 ]
 [ 0.1545916   3.3432    ]
 [ 0.1545916   3.3607765 ]
 [ 0.1545916   3.3765553 ]
 [ 0.1545916   3.3941775 ]
 [ 0.1545916   3.4098568 ]
 [ 0.1545916   3.427381  ]
 [ 0.1545916   3.4431577 ]
 [ 0.1545916   3.4608139 ]
 [ 0.1545916   3.4765884 ]
 [ 0.1545916   3.494164  ]
 [ 0.1545916   3.5098763 ]
 [ 0.1545916   3.5273823 ]
 [ 0.1545916   3.54319   ]
 [ 0.1545916   3.560562  ]
 [ 0.1545916   3.5765276 ]
 [ 0.1545916   3.5942906 ]
 [ 0.1545916   3.6098013 ]
 [ 0.1545916   3.6274805 ]
 [ 0.1545916   3.6431961 ]
 [ 0.1545916   3.6608023 ]
 [ 0.1545916   3.6765754 ]
 [ 0.1545916   3.6941038 ]
 [ 0.1545916   3.7098449 ]
 [ 0.1545916   3.7274206 ]
 [ 0.1545916   3.7432645 ]
 [ 0.1545916   3.7607677 ]
 [ 0.1545916   3.776567  ]
 [ 0.1545916   3.7941487 ]
 [ 0.1545916   3.8098744 ]
 [ 0.1545916   3.8274469 ]
 [ 0.1545916   3.8431763 ]
 [ 0.1545916   3.8607993 ]
 [ 0.1545916   3.8765804 ]
 [ 0.1545916   3.8941316 ]
 [ 0.1545916   3.9099059 ]
 [ 0.1545916   3.9273805 ]
 [ 0.1545916   3.9430963 ]
 [ 0.1545916   3.9606214 ]
 [ 0.17667611  3.9768229 ]
 [ 0.17667611  3.9944644 ]
 [ 0.17667611  4.0098661 ]
 [ 0.18403762  4.0276559 ]
 [ 0.18403762  4.0432017 ]
 [ 0.18403762  4.0607755 ]
 [ 0.18403762  4.0765691 ]
 [ 0.18403762  4.0941505 ]
 [ 0.18403762  4.1098023 ]
 [ 0.18403762  4.1274447 ]
 [ 0.18403762  4.1431454 ]
 [ 0.18403762  4.1607664 ]
 [ 0.18403762  4.1765911 ]
 [ 0.18403762  4.1941242 ]
 [ 0.18403762  4.2099047 ]
 [ 0.18403762  4.227431  ]
 [ 0.18403762  4.2430804 ]
 [ 0.18403762  4.2606567 ]
 [ 0.18403762  4.2765322 ]
 [ 0.18403762  4.2941184 ]
 [ 0.18403762  4.3098426 ]
 [ 0.18403762  4.3274224 ]
 [ 0.18403762  4.3432123 ]
 [ 0.18403762  4.3607984 ]
 [ 0.18403762  4.3765458 ]
 [ 0.18403762  4.3941907 ]
 [ 0.18403762  4.4099095 ]
 [ 0.18403762  4.4274813 ]
 [ 0.18403762  4.4431785 ]
 [ 0.18403762  4.4607986 ]
 [ 0.18403762  4.4765437 ]
 [ 0.18403762  4.4940692 ]
 [ 0.18403762  4.5098508 ]
 [ 0.18403762  4.5273798 ]
 [ 0.18403762  4.5432121 ]
 [ 0.18403762  4.5607995 ]
 [ 0.18403762  4.576593  ]
 [ 0.18403762  4.5941792 ]
 [ 0.18403762  4.6099564 ]
 [ 0.18403762  4.6273632 ]
 [ 0.18403762  4.643056  ]
 [ 0.18403762  4.6605576 ]
 [ 0.18403762  4.6765746 ]
 [ 0.18403762  4.6941616 ]
 [ 0.18403762  4.7098958 ]
 [ 0.18403762  4.7274305 ]
 [ 0.18403762  4.743194  ]
 [ 0.18403762  4.7607089 ]
 [ 0.18403762  4.7765951 ]
 [ 0.18403762  4.7941494 ]
 [ 0.18403762  4.8098741 ]
 [ 0.18403762  4.8274947 ]
 [ 0.18403762  4.8432441 ]
 [ 0.18403762  4.8607569 ]
 [ 0.18403762  4.8765851 ]
 [ 0.18403762  4.8941748 ]
 [ 0.18403762  4.9099466 ]
 [ 0.18403762  4.9274042 ]
 [ 0.18403762  4.943068  ]
 [ 0.18403762  4.9606959 ]
 [ 0.18403762  4.9765943 ]
 [ 0.18403762  4.9941208 ]
 [ 0.18403762  5.0098927 ]
 [ 0.18403762  5.0274542 ]
 [ 0.18403762  5.0432474 ]
 [ 0.18403762  5.0607829 ]
 [ 0.18403762  5.0767413 ]
 [ 0.18403762  5.09419   ]
 [ 0.18403762  5.1099451 ]
 [ 0.18403762  5.1274015 ]
 [ 0.18403762  5.143266  ]
 [ 0.18403762  5.1607674 ]
 [ 0.18403762  5.1765845 ]
 [ 0.18403762  5.1941236 ]
 [ 0.18403762  5.2099604 ]
 [ 0.18403762  5.2273859 ]
 [ 0.18403762  5.243244  ]
 [ 0.18403762  5.2607871 ]
 [ 0.18403762  5.2766011 ]
 [ 0.18403762  5.2939528 ]
 [ 0.18403762  5.309888  ]
 [ 0.18403762  5.3274181 ]
 [ 0.18403762  5.3432553 ]
 [ 0.18403762  5.3607854 ]
 [ 0.18403762  5.3765665 ]
 [ 0.18403762  5.3940525 ]
 [ 0.18403762  5.4098635 ]
 [ 0.18403762  5.4274375 ]
 [ 0.18403762  5.4432462 ]
 [ 0.18403762  5.4607246 ]
 [ 0.18403762  5.4766052 ]
 [ 0.18403762  5.4940776 ]
 [ 0.18403762  5.5099724 ]
 [ 0.18403762  5.5273103 ]
 [ 0.18403762  5.5431333 ]
 [ 0.18403762  5.5605305 ]
 [ 0.18403762  5.576603  ]
 [ 0.18403762  5.5941138 ]
 [ 0.18403762  5.6099562 ]
 [ 0.18403762  5.6273399 ]
 [ 0.18403762  5.6432298 ]
 [ 0.18403762  5.6608178 ]
 [ 0.18403762  5.6765281 ]
 [ 0.18403762  5.6941736 ]
 [ 0.18403762  5.7099576 ]
 [ 0.18403762  5.7274006 ]
 [ 0.18403762  5.7433062 ]
 [ 0.18403762  5.7607367 ]
 [ 0.18403762  5.7765932 ]
 [ 0.18403762  5.7941022 ]
 [ 0.18403762  5.8098013 ]
 [ 0.18403762  5.8273862 ]
 [ 0.18403762  5.8431516 ]
 [ 0.18403762  5.860651  ]
 [ 0.18403762  5.8765038 ]
 [ 0.18403762  5.8941424 ]
 [ 0.18403762  5.909954  ]
 [ 0.18403762  5.9273675 ]
 [ 0.18403762  5.9432614 ]
 [ 0.18403762  5.9607607 ]
 [ 0.18403762  5.9765856 ]
 [ 0.18403762  5.9941594 ]
 [ 0.18403762  6.0099666 ]
 [ 0.18403762  6.0270439 ]
 [ 0.18403762  6.0436799 ]]",6.01,None,None,None,None,None,False,False,False,False,False,True,True,"[[ 0.00000000e+00  7.19993841e-06]
 [ 0.00000000e+00  6.86309999e-03]
 [ 0.00000000e+00  2.34693000e-02]
 [ 0.00000000e+00  4.01753000e-02]
 [ 0.00000000e+00  5.68452000e-02]
 [ 0.00000000e+00  7.35136999e-02]
 [ 0.00000000e+00  9.01654999e-02]
 [ 0.00000000e+00  1.06799000e-01]
 [ 0.00000000e+00  1.23486700e-01]
 [ 0.00000000e+00  1.40178600e-01]
 [ 0.00000000e+00  1.56815800e-01]
 [ 0.00000000e+00  1.73495100e-01]
 [ 0.00000000e+00  1.90127700e-01]
 [ 0.00000000e+00  2.06829600e-01]
 [ 0.00000000e+00  2.23345200e-01]
 [ 0.00000000e+00  2.40019500e-01]
 [ 0.00000000e+00  2.56835900e-01]
 [ 0.00000000e+00  2.73515700e-01]
 [ 0.00000000e+00  2.90152100e-01]
 [ 0.00000000e+00  3.06829700e-01]
 [ 0.00000000e+00  3.23499300e-01]
 [ 0.00000000e+00  3.40184900e-01]
 [ 0.00000000e+00  3.56833700e-01]
 [ 0.00000000e+00  3.73512000e-01]
 [ 0.00000000e+00  3.90153700e-01]
 [ 0.00000000e+00  4.06798900e-01]
 [ 0.00000000e+00  4.23500100e-01]
 [ 0.00000000e+00  4.40176900e-01]
 [ 0.00000000e+00  4.56836200e-01]
 [ 0.00000000e+00  4.73518500e-01]
 [ 0.00000000e+00  4.90111200e-01]
 [ 0.00000000e+00  5.06857000e-01]
 [ 0.00000000e+00  5.23500400e-01]
 [ 0.00000000e+00  5.40170600e-01]
 [ 0.00000000e+00  5.56825700e-01]
 [ 0.00000000e+00  5.73948900e-01]
 [ 0.00000000e+00  5.90637600e-01]
 [ 0.00000000e+00  6.07299700e-01]
 [ 0.00000000e+00  6.23968700e-01]
 [ 0.00000000e+00  6.40622900e-01]
 [ 0.00000000e+00  6.57305300e-01]
 [ 0.00000000e+00  6.73969600e-01]
 [ 0.00000000e+00  6.90632000e-01]
 [ 0.00000000e+00  7.07327900e-01]
 [ 0.00000000e+00  7.23968900e-01]
 [ 0.00000000e+00  7.40633600e-01]
 [ 0.00000000e+00  7.57300700e-01]
 [ 0.00000000e+00  7.73965300e-01]
 [ 0.00000000e+00  7.90644300e-01]
 [ 0.00000000e+00  8.07304200e-01]
 [ 0.00000000e+00  8.23971600e-01]
 [ 0.00000000e+00  8.40635900e-01]
 [ 0.00000000e+00  8.57319800e-01]
 [ 0.00000000e+00  8.73971400e-01]
 [ 0.00000000e+00  8.90623100e-01]
 [ 0.00000000e+00  9.07317600e-01]
 [ 0.00000000e+00  9.23970800e-01]
 [ 0.00000000e+00  9.40636900e-01]
 [ 0.00000000e+00  9.57306900e-01]
 [ 0.00000000e+00  9.73969900e-01]
 [ 0.00000000e+00  9.90630300e-01]
 [ 0.00000000e+00  1.00732150e+00]
 [ 0.00000000e+00  1.02398020e+00]
 [ 0.00000000e+00  1.04063920e+00]
 [ 0.00000000e+00  1.05730280e+00]
 [ 0.00000000e+00  1.07397480e+00]
 [ 0.00000000e+00  1.09061210e+00]
 [ 0.00000000e+00  1.10731660e+00]
 [ 0.00000000e+00  1.12397310e+00]
 [ 0.00000000e+00  1.14064430e+00]
 [ 0.00000000e+00  1.15731950e+00]
 [ 0.00000000e+00  1.17397470e+00]
 [ 0.00000000e+00  1.19064400e+00]
 [ 0.00000000e+00  1.20731800e+00]
 [ 0.00000000e+00  1.22397750e+00]
 [ 0.00000000e+00  1.24020540e+00]
 [ 0.00000000e+00  1.25683070e+00]
 [ 0.00000000e+00  1.27336900e+00]
 [ 0.00000000e+00  1.29001470e+00]
 [ 1.47230095e-02  1.30686550e+00]
 [ 8.83380573e-02  1.32352800e+00]
 [ 2.42929657e-01  1.34019840e+00]
 [ 4.19605772e-01  1.35681990e+00]
 [ 6.18366401e-01  1.37353670e+00]
 [ 7.14065963e-01  1.39005240e+00]
 [ 7.65596496e-01  1.40674000e+00]
 [ 7.80319506e-01  1.42351390e+00]
 [ 7.87681011e-01  1.44018860e+00]
 [ 7.95042515e-01  1.45684990e+00]
 [ 8.17127030e-01  1.47352860e+00]
 [ 8.53934554e-01  1.49016560e+00]
 [ 9.27549601e-01  1.50685760e+00]
 [ 1.00000000e+00  1.52352590e+00]
 [ 1.00000000e+00  1.54019460e+00]
 [ 1.00000000e+00  1.55683390e+00]
 [ 1.00000000e+00  1.57348400e+00]
 [ 1.00000000e+00  1.59003410e+00]
 [ 1.00000000e+00  1.60670110e+00]
 [ 1.00000000e+00  1.62351830e+00]
 [ 1.00000000e+00  1.64019120e+00]
 [ 1.00000000e+00  1.65670670e+00]
 [ 1.00000000e+00  1.67337430e+00]
 [ 1.00000000e+00  1.69003280e+00]
 [ 1.00000000e+00  1.70686680e+00]
 [ 1.00000000e+00  1.72352980e+00]
 [ 1.00000000e+00  1.74064100e+00]
 [ 1.00000000e+00  1.75732020e+00]
 [ 1.00000000e+00  1.77398120e+00]
 [ 1.00000000e+00  1.79063520e+00]
 [ 1.00000000e+00  1.80731910e+00]
 [ 1.00000000e+00  1.82397640e+00]
 [ 9.42272611e-01  1.84065090e+00]
 [ 7.87681011e-01  1.85732410e+00]
 [ 6.55173925e-01  1.87398230e+00]
 [ 5.74197372e-01  1.89065430e+00]
 [ 4.85859315e-01  1.90732720e+00]
 [ 4.19605772e-01  1.92398770e+00]
 [ 3.45990724e-01  1.94065320e+00]
 [ 2.57652667e-01  1.95733320e+00]
 [ 1.98760629e-01  1.97398550e+00]
 [ 1.47230095e-01  1.99062350e+00]
 [ 8.83380573e-02  2.00731940e+00]
 [ 1.47230095e-02  2.02398340e+00]
 [-4.41690286e-02  2.04065530e+00]
 [-9.56995620e-02  2.05733400e+00]
 [-1.25145581e-01  2.07399140e+00]
 [-1.69314610e-01  2.09065090e+00]
 [-1.98760629e-01  2.10732810e+00]
 [-2.42929657e-01  2.12398620e+00]
 [-3.31267715e-01  2.14065850e+00]
 [-4.78497810e-01  2.15732850e+00]
 [-5.88920382e-01  2.17399110e+00]
 [-6.99342953e-01  2.19064900e+00]
 [-7.95042515e-01  2.20728830e+00]
 [-8.61296058e-01  2.22399270e+00]
 [-8.98103582e-01  2.24066170e+00]
 [-9.20188096e-01  2.25732880e+00]
 [-9.34911106e-01  2.27398680e+00]
 [-9.42272611e-01  2.29065820e+00]
 [-9.56995620e-01  2.30732920e+00]
 [-9.71718630e-01  2.32399870e+00]
 [-9.93803144e-01  2.34066330e+00]
 [-1.00000000e+00  2.35734310e+00]
 [-1.00000000e+00  2.37397640e+00]
 [-1.00000000e+00  2.39065320e+00]
 [-1.00000000e+00  2.40732210e+00]
 [-1.00000000e+00  2.42399300e+00]
 [-1.00000000e+00  2.44065260e+00]
 [-1.00000000e+00  2.45734180e+00]
 [-1.00000000e+00  2.47401370e+00]
 [-1.00000000e+00  2.49065390e+00]
 [-1.00000000e+00  2.50733200e+00]
 [-1.00000000e+00  2.52398990e+00]
 [-1.00000000e+00  2.54066170e+00]
 [-1.00000000e+00  2.55732630e+00]
 [-1.00000000e+00  2.57351450e+00]
 [-1.00000000e+00  2.59015320e+00]
 [-1.00000000e+00  2.60684080e+00]
 [-1.00000000e+00  2.62354150e+00]
 [-1.00000000e+00  2.64021580e+00]
 [-1.00000000e+00  2.65688050e+00]
 [-1.00000000e+00  2.67354530e+00]
 [-1.00000000e+00  2.69017690e+00]
 [-1.00000000e+00  2.70686670e+00]
 [-1.00000000e+00  2.72339850e+00]
 [-1.00000000e+00  2.74016020e+00]
 [-1.00000000e+00  2.75688500e+00]
 [-9.79080135e-01  2.77354770e+00]
 [-9.64357125e-01  2.79013830e+00]
 [-9.49634116e-01  2.80672330e+00]
 [-9.42272611e-01  2.82354310e+00]
 [-9.27549601e-01  2.84017130e+00]
 [-9.12826592e-01  2.85687520e+00]
 [-8.53934554e-01  2.87349840e+00]
 [-7.36150477e-01  2.89002590e+00]
 [-6.33089410e-01  2.90687200e+00]
 [-5.44751353e-01  2.92349680e+00]
 [-5.07943829e-01  2.94014720e+00]
 [-4.85859315e-01  2.95687220e+00]
 [-4.85859315e-01  2.97354290e+00]
 [-4.78497810e-01  2.99007920e+00]
 [-4.56413296e-01  3.00682890e+00]
 [-4.12244267e-01  3.02355390e+00]
 [-3.68075239e-01  3.04066720e+00]
 [-3.23906210e-01  3.05733790e+00]
 [-2.79737181e-01  3.07400320e+00]
 [-2.57652667e-01  3.09066990e+00]
 [-2.35568153e-01  3.10736480e+00]
 [-2.13483638e-01  3.12400350e+00]
 [-2.06122134e-01  3.14065050e+00]
 [-1.84037619e-01  3.15733910e+00]
 [-1.47230095e-01  3.17400510e+00]
 [-9.56995620e-02  3.19067100e+00]
 [-2.94460191e-02  3.20733750e+00]
 [ 2.94460191e-02  3.22402060e+00]
 [ 8.09765525e-02  3.24067410e+00]
 [ 1.10422572e-01  3.25735790e+00]
 [ 1.17784076e-01  3.27400460e+00]
 [ 1.17784076e-01  3.29066580e+00]
 [ 1.17784076e-01  3.30734140e+00]
 [ 1.17784076e-01  3.32401320e+00]
 [ 1.17784076e-01  3.34065150e+00]
 [ 1.17784076e-01  3.35736000e+00]
 [ 1.17784076e-01  3.37399810e+00]
 [ 1.17784076e-01  3.39067140e+00]
 [ 1.17784076e-01  3.40735860e+00]
 [ 1.17784076e-01  3.42399090e+00]
 [ 1.17784076e-01  3.44065750e+00]
 [ 1.17784076e-01  3.45735010e+00]
 [ 1.17784076e-01  3.47400690e+00]
 [ 1.17784076e-01  3.49065960e+00]
 [ 1.17784076e-01  3.50734370e+00]
 [ 1.17784076e-01  3.52401010e+00]
 [ 1.17784076e-01  3.54067330e+00]
 [ 1.17784076e-01  3.55735860e+00]
 [ 1.17784076e-01  3.57401400e+00]
 [ 1.17784076e-01  3.59068150e+00]
 [ 1.17784076e-01  3.60736310e+00]
 [ 1.17784076e-01  3.62356910e+00]
 [ 1.17784076e-01  3.64021970e+00]
 [ 1.17784076e-01  3.65687410e+00]
 [ 1.17784076e-01  3.67354730e+00]
 [ 1.17784076e-01  3.69017020e+00]
 [ 1.17784076e-01  3.70684500e+00]
 [ 1.17784076e-01  3.72350150e+00]
 [ 1.17784076e-01  3.74023430e+00]
 [ 1.17784076e-01  3.75686680e+00]
 [ 1.17784076e-01  3.77362370e+00]
 [ 1.32507086e-01  3.79014440e+00]
 [ 1.32507086e-01  3.80673400e+00]
 [ 1.32507086e-01  3.82355490e+00]
 [ 1.32507086e-01  3.84022930e+00]
 [ 1.32507086e-01  3.85687210e+00]
 [ 1.32507086e-01  3.87356280e+00]
 [ 1.32507086e-01  3.89017540e+00]
 [ 1.32507086e-01  3.90670260e+00]
 [ 1.32507086e-01  3.92354920e+00]
 [ 1.32507086e-01  3.94039760e+00]
 [ 1.32507086e-01  3.95687250e+00]
 [ 1.32507086e-01  3.97359380e+00]
 [ 1.32507086e-01  3.99067070e+00]
 [ 1.32507086e-01  4.00736630e+00]
 [ 1.32507086e-01  4.02401380e+00]
 [ 1.32507086e-01  4.04067860e+00]
 [ 1.32507086e-01  4.05734390e+00]
 [ 1.32507086e-01  4.07401660e+00]
 [ 1.32507086e-01  4.09067540e+00]
 [ 1.32507086e-01  4.10735240e+00]
 [ 1.32507086e-01  4.12401760e+00]
 [ 1.32507086e-01  4.14068090e+00]
 [ 1.32507086e-01  4.15736470e+00]
 [ 1.32507086e-01  4.17402470e+00]
 [ 1.32507086e-01  4.19066810e+00]
 [ 1.32507086e-01  4.20735200e+00]
 [ 1.32507086e-01  4.22402880e+00]
 [ 1.32507086e-01  4.24068760e+00]
 [ 1.32507086e-01  4.25735420e+00]
 [ 1.32507086e-01  4.27402030e+00]
 [ 1.32507086e-01  4.29068610e+00]
 [ 1.32507086e-01  4.30678320e+00]
 [ 1.32507086e-01  4.32356070e+00]
 [ 1.32507086e-01  4.34019070e+00]
 [ 1.32507086e-01  4.35689310e+00]
 [ 1.32507086e-01  4.37356120e+00]
 [ 1.32507086e-01  4.39013970e+00]
 [ 1.32507086e-01  4.40685210e+00]
 [ 1.32507086e-01  4.42354920e+00]
 [ 1.32507086e-01  4.44024440e+00]
 [ 1.32507086e-01  4.45688920e+00]
 [ 1.32507086e-01  4.47356740e+00]
 [ 1.32507086e-01  4.49018920e+00]
 [ 1.32507086e-01  4.50690670e+00]
 [ 1.32507086e-01  4.52341620e+00]
 [ 1.32507086e-01  4.54004270e+00]
 [ 1.32507086e-01  4.55689930e+00]
 [ 1.32507086e-01  4.57352090e+00]
 [ 1.32507086e-01  4.59021850e+00]
 [ 1.32507086e-01  4.60676840e+00]
 [ 1.32507086e-01  4.62356170e+00]
 [ 1.32507086e-01  4.64024110e+00]
 [ 1.32507086e-01  4.65688280e+00]
 [ 1.32507086e-01  4.67355980e+00]
 [ 1.32507086e-01  4.69017970e+00]
 [ 1.32507086e-01  4.70687470e+00]
 [ 1.32507086e-01  4.72355180e+00]
 [ 1.32507086e-01  4.74022840e+00]
 [ 1.32507086e-01  4.75688410e+00]
 [ 1.32507086e-01  4.77354760e+00]
 [ 1.32507086e-01  4.79022720e+00]
 [ 1.32507086e-01  4.80687300e+00]
 [ 1.32507086e-01  4.82358440e+00]
 [ 1.32507086e-01  4.84024510e+00]
 [ 1.32507086e-01  4.85689930e+00]
 [ 1.32507086e-01  4.87356420e+00]
 [ 1.32507086e-01  4.89021860e+00]
 [ 1.32507086e-01  4.90686390e+00]
 [ 1.32507086e-01  4.92356550e+00]
 [ 1.32507086e-01  4.94031440e+00]
 [ 1.32507086e-01  4.95690450e+00]
 [ 1.32507086e-01  4.97357460e+00]
 [ 1.32507086e-01  4.99017720e+00]
 [ 1.32507086e-01  5.00675430e+00]
 [ 1.32507086e-01  5.02356410e+00]
 [ 1.32507086e-01  5.04024960e+00]
 [ 1.32507086e-01  5.05677740e+00]
 [ 1.32507086e-01  5.07357220e+00]
 [ 1.32507086e-01  5.09012850e+00]
 [ 1.32507086e-01  5.10691760e+00]
 [ 1.32507086e-01  5.12357160e+00]
 [ 1.32507086e-01  5.14023610e+00]
 [ 1.32507086e-01  5.15689050e+00]
 [ 1.32507086e-01  5.17357020e+00]
 [ 1.32507086e-01  5.19022290e+00]
 [ 1.32507086e-01  5.20686620e+00]
 [ 1.32507086e-01  5.22353040e+00]
 [ 1.32507086e-01  5.24024560e+00]
 [ 1.32507086e-01  5.25691790e+00]
 [ 1.32507086e-01  5.27353620e+00]
 [ 1.32507086e-01  5.29005820e+00]
 [ 1.32507086e-01  5.30691370e+00]
 [ 1.32507086e-01  5.32357140e+00]
 [ 1.10422572e-01  5.34022390e+00]
 [ 1.10422572e-01  5.35690790e+00]
 [ 1.69314610e-01  5.37360230e+00]
 [ 3.01821696e-01  5.39009690e+00]
 [ 3.16544705e-01  5.40677560e+00]
 [ 3.16544705e-01  5.42355370e+00]
 [ 3.16544705e-01  5.44020520e+00]
 [ 3.16544705e-01  5.45691060e+00]
 [ 3.16544705e-01  5.47358560e+00]
 [ 3.16544705e-01  5.49022330e+00]
 [ 3.16544705e-01  5.50685210e+00]
 [ 3.16544705e-01  5.52359310e+00]
 [ 3.16544705e-01  5.54026480e+00]
 [ 3.16544705e-01  5.55689610e+00]
 [ 3.16544705e-01  5.57353510e+00]
 [ 3.16544705e-01  5.59018610e+00]
 [ 3.16544705e-01  5.60691510e+00]
 [ 3.16544705e-01  5.62343650e+00]
 [ 3.16544705e-01  5.64006570e+00]
 [ 3.16544705e-01  5.65689610e+00]
 [ 3.16544705e-01  5.67357920e+00]
 [ 3.16544705e-01  5.69021810e+00]
 [ 3.16544705e-01  5.70692280e+00]
 [ 3.16544705e-01  5.72357710e+00]
 [ 3.16544705e-01  5.74026230e+00]
 [ 3.16544705e-01  5.75689670e+00]
 [ 3.16544705e-01  5.77359310e+00]
 [ 3.16544705e-01  5.79023630e+00]
 [ 3.16544705e-01  5.80687620e+00]
 [ 3.16544705e-01  5.82357850e+00]
 [ 3.16544705e-01  5.84021120e+00]
 [ 3.16544705e-01  5.85690000e+00]
 [ 3.16544705e-01  5.87359470e+00]
 [ 3.16544705e-01  5.89020610e+00]
 [ 3.16544705e-01  5.90687940e+00]
 [ 3.16544705e-01  5.92358420e+00]
 [ 3.16544705e-01  5.94015320e+00]
 [ 3.16544705e-01  5.95690070e+00]
 [ 3.16544705e-01  5.97359330e+00]
 [ 3.16544705e-01  5.99024770e+00]
 [ 3.16544705e-01  6.00691270e+00]
 [ 3.16544705e-01  6.02343850e+00]
 [ 3.16544705e-01  6.04010780e+00]]","[[1.40000000e+02 7.19993841e-06]
 [1.40000000e+02 6.86309999e-03]
 [1.40000000e+02 2.34693000e-02]
 [1.40000000e+02 4.01753000e-02]
 [1.40000000e+02 5.68452000e-02]
 [1.40000000e+02 7.35136999e-02]
 [1.40000000e+02 9.01654999e-02]
 [1.40000000e+02 1.06799000e-01]
 [1.40000000e+02 1.23486700e-01]
 [1.40000000e+02 1.40178600e-01]
 [1.40000000e+02 1.56815800e-01]
 [1.40000000e+02 1.73495100e-01]
 [1.40000000e+02 1.90127700e-01]
 [1.40000000e+02 2.06829600e-01]
 [1.40000000e+02 2.23345200e-01]
 [1.40000000e+02 2.40019500e-01]
 [1.40000000e+02 2.56835900e-01]
 [1.40000000e+02 2.73515700e-01]
 [1.40000000e+02 2.90152100e-01]
 [1.40000000e+02 3.06829700e-01]
 [1.40000000e+02 3.23499300e-01]
 [1.40000000e+02 3.40184900e-01]
 [1.40000000e+02 3.56833700e-01]
 [1.40000000e+02 3.73512000e-01]
 [1.40000000e+02 3.90153700e-01]
 [1.40000000e+02 4.06798900e-01]
 [1.40000000e+02 4.23500100e-01]
 [1.40000000e+02 4.40176900e-01]
 [1.40000000e+02 4.56836200e-01]
 [1.40000000e+02 4.73518500e-01]
 [1.40000000e+02 4.90111200e-01]
 [1.40000000e+02 5.06857000e-01]
 [1.40000000e+02 5.23500400e-01]
 [1.40000000e+02 5.40170600e-01]
 [1.42539719e+02 5.56825700e-01]
 [1.42539719e+02 5.73948900e-01]
 [1.43386292e+02 5.90637600e-01]
 [1.43386292e+02 6.07299700e-01]
 [1.43386292e+02 6.23968700e-01]
 [1.45079438e+02 6.40622900e-01]
 [1.45926011e+02 6.57305300e-01]
 [1.49312304e+02 6.73969600e-01]
 [1.54391742e+02 6.90632000e-01]
 [1.59471180e+02 7.07327900e-01]
 [1.63704045e+02 7.23968900e-01]
 [1.64550618e+02 7.40633600e-01]
 [1.64550618e+02 7.57300700e-01]
 [1.65397191e+02 7.73965300e-01]
 [1.66243765e+02 7.90644300e-01]
 [1.67936911e+02 8.07304200e-01]
 [1.68783484e+02 8.23971600e-01]
 [1.71323203e+02 8.40635900e-01]
 [1.73016349e+02 8.57319800e-01]
 [1.77249214e+02 8.73971400e-01]
 [1.83175225e+02 8.90623100e-01]
 [1.88254664e+02 9.07317600e-01]
 [1.94180675e+02 9.23970800e-01]
 [1.98413540e+02 9.40636900e-01]
 [2.04339552e+02 9.57306900e-01]
 [2.07725844e+02 9.73969900e-01]
 [2.09418990e+02 9.90630300e-01]
 [2.09418990e+02 1.00732150e+00]
 [2.09418990e+02 1.02398020e+00]
 [2.09418990e+02 1.04063920e+00]
 [2.11112136e+02 1.05730280e+00]
 [2.11958709e+02 1.07397480e+00]
 [2.14498428e+02 1.09061210e+00]
 [2.17038147e+02 1.10731660e+00]
 [2.21271013e+02 1.12397310e+00]
 [2.25503878e+02 1.14064430e+00]
 [2.29736743e+02 1.15731950e+00]
 [2.33123035e+02 1.17397470e+00]
 [2.39895620e+02 1.19064400e+00]
 [2.49207923e+02 1.20731800e+00]
 [2.55000000e+02 1.22397750e+00]
 [2.55000000e+02 1.24020540e+00]
 [2.55000000e+02 1.25683070e+00]
 [2.55000000e+02 1.27336900e+00]
 [2.55000000e+02 1.29001470e+00]
 [2.55000000e+02 1.30686550e+00]
 [2.55000000e+02 1.32352800e+00]
 [2.55000000e+02 1.34019840e+00]
 [2.55000000e+02 1.35681990e+00]
 [2.55000000e+02 1.37353670e+00]
 [2.55000000e+02 1.39005240e+00]
 [2.55000000e+02 1.40674000e+00]
 [2.55000000e+02 1.42351390e+00]
 [2.55000000e+02 1.44018860e+00]
 [2.55000000e+02 1.45684990e+00]
 [2.55000000e+02 1.47352860e+00]
 [2.55000000e+02 1.49016560e+00]
 [2.55000000e+02 1.50685760e+00]
 [2.55000000e+02 1.52352590e+00]
 [2.55000000e+02 1.54019460e+00]
 [2.55000000e+02 1.55683390e+00]
 [2.55000000e+02 1.57348400e+00]
 [2.55000000e+02 1.59003410e+00]
 [2.55000000e+02 1.60670110e+00]
 [2.55000000e+02 1.62351830e+00]
 [2.55000000e+02 1.64019120e+00]
 [2.55000000e+02 1.65670670e+00]
 [2.55000000e+02 1.67337430e+00]
 [2.55000000e+02 1.69003280e+00]
 [2.55000000e+02 1.70686680e+00]
 [2.54287362e+02 1.72352980e+00]
 [2.45821631e+02 1.74064100e+00]
 [2.42435339e+02 1.75732020e+00]
 [2.40742193e+02 1.77398120e+00]
 [2.40742193e+02 1.79063520e+00]
 [2.38202474e+02 1.80731910e+00]
 [2.34816181e+02 1.82397640e+00]
 [2.30583316e+02 1.84065090e+00]
 [2.23810732e+02 1.85732410e+00]
 [2.16191574e+02 1.87398230e+00]
 [2.11958709e+02 1.89065430e+00]
 [2.09418990e+02 1.90732720e+00]
 [2.06879271e+02 1.92398770e+00]
 [2.02646406e+02 1.94065320e+00]
 [1.97566967e+02 1.95733320e+00]
 [1.92487529e+02 1.97398550e+00]
 [1.87408091e+02 1.99062350e+00]
 [1.82328652e+02 2.00731940e+00]
 [1.78095787e+02 2.02398340e+00]
 [1.74709495e+02 2.04065530e+00]
 [1.73862922e+02 2.05733400e+00]
 [1.71323203e+02 2.07399140e+00]
 [1.67936911e+02 2.09065090e+00]
 [1.63704045e+02 2.10732810e+00]
 [1.56931461e+02 2.12398620e+00]
 [1.49312304e+02 2.14065850e+00]
 [1.39153427e+02 2.15732850e+00]
 [1.34920562e+02 2.17399110e+00]
 [1.29841123e+02 2.19064900e+00]
 [1.25608258e+02 2.20728830e+00]
 [1.19682247e+02 2.22399270e+00]
 [1.13756235e+02 2.24066170e+00]
 [1.09523370e+02 2.25732880e+00]
 [1.06983651e+02 2.27398680e+00]
 [1.04443932e+02 2.29065820e+00]
 [1.00211067e+02 2.30732920e+00]
 [9.76713476e+01 2.32399870e+00]
 [9.25919093e+01 2.34066330e+00]
 [9.00521901e+01 2.35734310e+00]
 [8.66658979e+01 2.37397640e+00]
 [8.32796057e+01 2.39065320e+00]
 [8.07398866e+01 2.40732210e+00]
 [7.65070213e+01 2.42399300e+00]
 [6.97344370e+01 2.44065260e+00]
 [6.29618526e+01 2.45734180e+00]
 [5.53426951e+01 2.47401370e+00]
 [4.77235377e+01 2.49065390e+00]
 [4.17975263e+01 2.50733200e+00]
 [3.58715150e+01 2.52398990e+00]
 [2.82523576e+01 2.54066170e+00]
 [2.50000000e+01 2.55732630e+00]
 [2.50000000e+01 2.57351450e+00]
 [2.50000000e+01 2.59015320e+00]
 [2.50000000e+01 2.60684080e+00]
 [2.50000000e+01 2.62354150e+00]
 [2.50000000e+01 2.64021580e+00]
 [2.50000000e+01 2.65688050e+00]
 [2.50000000e+01 2.67354530e+00]
 [2.50000000e+01 2.69017690e+00]
 [2.50000000e+01 2.70686670e+00]
 [2.50000000e+01 2.72339850e+00]
 [2.50000000e+01 2.74016020e+00]
 [2.50000000e+01 2.75688500e+00]
 [2.50000000e+01 2.77354770e+00]
 [2.50000000e+01 2.79013830e+00]
 [2.50000000e+01 2.80672330e+00]
 [2.50000000e+01 2.82354310e+00]
 [2.50000000e+01 2.84017130e+00]
 [2.50000000e+01 2.85687520e+00]
 [2.50000000e+01 2.87349840e+00]
 [2.50000000e+01 2.89002590e+00]
 [2.50000000e+01 2.90687200e+00]
 [2.50000000e+01 2.92349680e+00]
 [2.50000000e+01 2.94014720e+00]
 [2.50000000e+01 2.95687220e+00]
 [2.50000000e+01 2.97354290e+00]
 [2.50000000e+01 2.99007920e+00]
 [2.50000000e+01 3.00682890e+00]
 [2.65592115e+01 3.02355390e+00]
 [3.58715150e+01 3.04066720e+00]
 [4.68769646e+01 3.05733790e+00]
 [5.53426951e+01 3.07400320e+00]
 [6.46549987e+01 3.09066990e+00]
 [6.80412909e+01 3.10736480e+00]
 [7.05810100e+01 3.12400350e+00]
 [7.31207291e+01 3.14065050e+00]
 [7.98933135e+01 3.15733910e+00]
 [9.51316284e+01 3.17400510e+00]
 [1.12909662e+02 3.19067100e+00]
 [1.29841123e+02 3.20733750e+00]
 [1.45079438e+02 3.22402060e+00]
 [1.50158877e+02 3.24067410e+00]
 [1.51005450e+02 3.25735790e+00]
 [1.51005450e+02 3.27400460e+00]
 [1.52698596e+02 3.29066580e+00]
 [1.54391742e+02 3.30734140e+00]
 [1.56931461e+02 3.32401320e+00]
 [1.57778034e+02 3.34065150e+00]
 [1.57778034e+02 3.35736000e+00]
 [1.57778034e+02 3.37399810e+00]
 [1.57778034e+02 3.39067140e+00]
 [1.57778034e+02 3.40735860e+00]
 [1.57778034e+02 3.42399090e+00]
 [1.57778034e+02 3.44065750e+00]
 [1.57778034e+02 3.45735010e+00]
 [1.57778034e+02 3.47400690e+00]
 [1.57778034e+02 3.49065960e+00]
 [1.57778034e+02 3.50734370e+00]
 [1.57778034e+02 3.52401010e+00]
 [1.57778034e+02 3.54067330e+00]
 [1.57778034e+02 3.55735860e+00]
 [1.57778034e+02 3.57401400e+00]
 [1.57778034e+02 3.59068150e+00]
 [1.57778034e+02 3.60736310e+00]
 [1.57778034e+02 3.62356910e+00]
 [1.57778034e+02 3.64021970e+00]
 [1.57778034e+02 3.65687410e+00]
 [1.57778034e+02 3.67354730e+00]
 [1.57778034e+02 3.69017020e+00]
 [1.57778034e+02 3.70684500e+00]
 [1.57778034e+02 3.72350150e+00]
 [1.57778034e+02 3.74023430e+00]
 [1.57778034e+02 3.75686680e+00]
 [1.57778034e+02 3.77362370e+00]
 [1.57778034e+02 3.79014440e+00]
 [1.57778034e+02 3.80673400e+00]
 [1.57778034e+02 3.82355490e+00]
 [1.57778034e+02 3.84022930e+00]
 [1.57778034e+02 3.85687210e+00]
 [1.57778034e+02 3.87356280e+00]
 [1.57778034e+02 3.89017540e+00]
 [1.57778034e+02 3.90670260e+00]
 [1.57778034e+02 3.92354920e+00]
 [1.57778034e+02 3.94039760e+00]
 [1.57778034e+02 3.95687250e+00]
 [1.60317753e+02 3.97359380e+00]
 [1.60317753e+02 3.99067070e+00]
 [1.60317753e+02 4.00736630e+00]
 [1.61164326e+02 4.02401380e+00]
 [1.61164326e+02 4.04067860e+00]
 [1.61164326e+02 4.05734390e+00]
 [1.61164326e+02 4.07401660e+00]
 [1.61164326e+02 4.09067540e+00]
 [1.61164326e+02 4.10735240e+00]
 [1.61164326e+02 4.12401760e+00]
 [1.61164326e+02 4.14068090e+00]
 [1.61164326e+02 4.15736470e+00]
 [1.61164326e+02 4.17402470e+00]
 [1.61164326e+02 4.19066810e+00]
 [1.61164326e+02 4.20735200e+00]
 [1.61164326e+02 4.22402880e+00]
 [1.61164326e+02 4.24068760e+00]
 [1.61164326e+02 4.25735420e+00]
 [1.61164326e+02 4.27402030e+00]
 [1.61164326e+02 4.29068610e+00]
 [1.61164326e+02 4.30678320e+00]
 [1.61164326e+02 4.32356070e+00]
 [1.61164326e+02 4.34019070e+00]
 [1.61164326e+02 4.35689310e+00]
 [1.61164326e+02 4.37356120e+00]
 [1.61164326e+02 4.39013970e+00]
 [1.61164326e+02 4.40685210e+00]
 [1.61164326e+02 4.42354920e+00]
 [1.61164326e+02 4.44024440e+00]
 [1.61164326e+02 4.45688920e+00]
 [1.61164326e+02 4.47356740e+00]
 [1.61164326e+02 4.49018920e+00]
 [1.61164326e+02 4.50690670e+00]
 [1.61164326e+02 4.52341620e+00]
 [1.61164326e+02 4.54004270e+00]
 [1.61164326e+02 4.55689930e+00]
 [1.61164326e+02 4.57352090e+00]
 [1.61164326e+02 4.59021850e+00]
 [1.61164326e+02 4.60676840e+00]
 [1.61164326e+02 4.62356170e+00]
 [1.61164326e+02 4.64024110e+00]
 [1.61164326e+02 4.65688280e+00]
 [1.61164326e+02 4.67355980e+00]
 [1.61164326e+02 4.69017970e+00]
 [1.61164326e+02 4.70687470e+00]
 [1.61164326e+02 4.72355180e+00]
 [1.61164326e+02 4.74022840e+00]
 [1.61164326e+02 4.75688410e+00]
 [1.61164326e+02 4.77354760e+00]
 [1.61164326e+02 4.79022720e+00]
 [1.61164326e+02 4.80687300e+00]
 [1.61164326e+02 4.82358440e+00]
 [1.61164326e+02 4.84024510e+00]
 [1.61164326e+02 4.85689930e+00]
 [1.61164326e+02 4.87356420e+00]
 [1.61164326e+02 4.89021860e+00]
 [1.61164326e+02 4.90686390e+00]
 [1.61164326e+02 4.92356550e+00]
 [1.61164326e+02 4.94031440e+00]
 [1.61164326e+02 4.95690450e+00]
 [1.61164326e+02 4.97357460e+00]
 [1.61164326e+02 4.99017720e+00]
 [1.61164326e+02 5.00675430e+00]
 [1.61164326e+02 5.02356410e+00]
 [1.61164326e+02 5.04024960e+00]
 [1.61164326e+02 5.05677740e+00]
 [1.61164326e+02 5.07357220e+00]
 [1.61164326e+02 5.09012850e+00]
 [1.61164326e+02 5.10691760e+00]
 [1.61164326e+02 5.12357160e+00]
 [1.61164326e+02 5.14023610e+00]
 [1.61164326e+02 5.15689050e+00]
 [1.61164326e+02 5.17357020e+00]
 [1.61164326e+02 5.19022290e+00]
 [1.61164326e+02 5.20686620e+00]
 [1.61164326e+02 5.22353040e+00]
 [1.61164326e+02 5.24024560e+00]
 [1.61164326e+02 5.25691790e+00]
 [1.61164326e+02 5.27353620e+00]
 [1.61164326e+02 5.29005820e+00]
 [1.61164326e+02 5.30691370e+00]
 [1.61164326e+02 5.32357140e+00]
 [1.61164326e+02 5.34022390e+00]
 [1.61164326e+02 5.35690790e+00]
 [1.61164326e+02 5.37360230e+00]
 [1.61164326e+02 5.39009690e+00]
 [1.61164326e+02 5.40677560e+00]
 [1.61164326e+02 5.42355370e+00]
 [1.61164326e+02 5.44020520e+00]
 [1.61164326e+02 5.45691060e+00]
 [1.61164326e+02 5.47358560e+00]
 [1.61164326e+02 5.49022330e+00]
 [1.61164326e+02 5.50685210e+00]
 [1.61164326e+02 5.52359310e+00]
 [1.61164326e+02 5.54026480e+00]
 [1.61164326e+02 5.55689610e+00]
 [1.61164326e+02 5.57353510e+00]
 [1.61164326e+02 5.59018610e+00]
 [1.61164326e+02 5.60691510e+00]
 [1.61164326e+02 5.62343650e+00]
 [1.61164326e+02 5.64006570e+00]
 [1.61164326e+02 5.65689610e+00]
 [1.61164326e+02 5.67357920e+00]
 [1.61164326e+02 5.69021810e+00]
 [1.61164326e+02 5.70692280e+00]
 [1.61164326e+02 5.72357710e+00]
 [1.61164326e+02 5.74026230e+00]
 [1.61164326e+02 5.75689670e+00]
 [1.61164326e+02 5.77359310e+00]
 [1.61164326e+02 5.79023630e+00]
 [1.61164326e+02 5.80687620e+00]
 [1.61164326e+02 5.82357850e+00]
 [1.61164326e+02 5.84021120e+00]
 [1.61164326e+02 5.85690000e+00]
 [1.61164326e+02 5.87359470e+00]
 [1.61164326e+02 5.89020610e+00]
 [1.61164326e+02 5.90687940e+00]
 [1.61164326e+02 5.92358420e+00]
 [1.61164326e+02 5.94015320e+00]
 [1.61164326e+02 5.95690070e+00]
 [1.61164326e+02 5.97359330e+00]
 [1.61164326e+02 5.99024770e+00]
 [1.61164326e+02 6.00691270e+00]
 [1.61164326e+02 6.02343850e+00]
 [1.61164326e+02 6.04010780e+00]]","[[ 0.00000000e+00  7.19993841e-06]
 [ 0.00000000e+00  6.86309999e-03]
 [ 0.00000000e+00  2.34693000e-02]
 [ 0.00000000e+00  4.01753000e-02]
 [ 0.00000000e+00  5.68452000e-02]
 [ 0.00000000e+00  7.35136999e-02]
 [ 0.00000000e+00  9.01654999e-02]
 [ 0.00000000e+00  1.06799000e-01]
 [ 0.00000000e+00  1.23486700e-01]
 [ 0.00000000e+00  1.40178600e-01]
 [ 0.00000000e+00  1.56815800e-01]
 [ 0.00000000e+00  1.73495100e-01]
 [ 0.00000000e+00  1.90127700e-01]
 [ 0.00000000e+00  2.06829600e-01]
 [ 0.00000000e+00  2.23345200e-01]
 [ 0.00000000e+00  2.40019500e-01]
 [ 0.00000000e+00  2.56835900e-01]
 [ 0.00000000e+00  2.73515700e-01]
 [ 0.00000000e+00  2.90152100e-01]
 [ 0.00000000e+00  3.06829700e-01]
 [ 0.00000000e+00  3.23499300e-01]
 [ 0.00000000e+00  3.40184900e-01]
 [ 0.00000000e+00  3.56833700e-01]
 [ 0.00000000e+00  3.73512000e-01]
 [ 0.00000000e+00  3.90153700e-01]
 [ 0.00000000e+00  4.06798900e-01]
 [ 0.00000000e+00  4.23500100e-01]
 [ 0.00000000e+00  4.40176900e-01]
 [ 0.00000000e+00  4.56836200e-01]
 [ 0.00000000e+00  4.73518500e-01]
 [ 0.00000000e+00  4.90111200e-01]
 [ 0.00000000e+00  5.06857000e-01]
 [ 0.00000000e+00  5.23500400e-01]
 [ 0.00000000e+00  5.40170600e-01]
 [ 2.20845143e-02  5.56825700e-01]
 [ 2.20845143e-02  5.73948900e-01]
 [ 2.94460191e-02  5.90637600e-01]
 [ 2.94460191e-02  6.07299700e-01]
 [ 2.94460191e-02  6.23968700e-01]
 [ 4.41690286e-02  6.40622900e-01]
 [ 5.15305334e-02  6.57305300e-01]
 [ 8.09765525e-02  6.73969600e-01]
 [ 1.25145581e-01  6.90632000e-01]
 [ 1.69314610e-01  7.07327900e-01]
 [ 2.06122134e-01  7.23968900e-01]
 [ 2.13483638e-01  7.40633600e-01]
 [ 2.13483638e-01  7.57300700e-01]
 [ 2.20845143e-01  7.73965300e-01]
 [ 2.28206648e-01  7.90644300e-01]
 [ 2.42929657e-01  8.07304200e-01]
 [ 2.50291162e-01  8.23971600e-01]
 [ 2.72375677e-01  8.40635900e-01]
 [ 2.87098686e-01  8.57319800e-01]
 [ 3.23906210e-01  8.73971400e-01]
 [ 3.75436743e-01  8.90623100e-01]
 [ 4.19605772e-01  9.07317600e-01]
 [ 4.71136305e-01  9.23970800e-01]
 [ 5.07943829e-01  9.40636900e-01]
 [ 5.59474363e-01  9.57306900e-01]
 [ 5.88920382e-01  9.73969900e-01]
 [ 6.03643391e-01  9.90630300e-01]
 [ 6.03643391e-01  1.00732150e+00]
 [ 6.03643391e-01  1.02398020e+00]
 [ 6.03643391e-01  1.04063920e+00]
 [ 6.18366401e-01  1.05730280e+00]
 [ 6.25727906e-01  1.07397480e+00]
 [ 6.47812420e-01  1.09061210e+00]
 [ 6.69896934e-01  1.10731660e+00]
 [ 7.06704458e-01  1.12397310e+00]
 [ 7.43511982e-01  1.14064430e+00]
 [ 7.80319506e-01  1.15731950e+00]
 [ 8.09765525e-01  1.17397470e+00]
 [ 8.68657563e-01  1.19064400e+00]
 [ 9.49634116e-01  1.20731800e+00]
 [ 1.00000000e+00  1.22397750e+00]
 [ 1.00000000e+00  1.24020540e+00]
 [ 1.00000000e+00  1.25683070e+00]
 [ 1.00000000e+00  1.27336900e+00]
 [ 1.00000000e+00  1.29001470e+00]
 [ 1.00000000e+00  1.30686550e+00]
 [ 1.00000000e+00  1.32352800e+00]
 [ 1.00000000e+00  1.34019840e+00]
 [ 1.00000000e+00  1.35681990e+00]
 [ 1.00000000e+00  1.37353670e+00]
 [ 1.00000000e+00  1.39005240e+00]
 [ 1.00000000e+00  1.40674000e+00]
 [ 1.00000000e+00  1.42351390e+00]
 [ 1.00000000e+00  1.44018860e+00]
 [ 1.00000000e+00  1.45684990e+00]
 [ 1.00000000e+00  1.47352860e+00]
 [ 1.00000000e+00  1.49016560e+00]
 [ 1.00000000e+00  1.50685760e+00]
 [ 1.00000000e+00  1.52352590e+00]
